Folder: MATLAB-Drive/PhD Work/Raman Plotter_050524/Plot Data/UG Glasses/CaZn

File: JC_UG_CaZn1_5th_cut_bas_ther_vect_040624.csv
RamanShift,CaZn1
49.85,-5.08E-06
55.64,0.000340715
61.42,0.00076005
67.21,0.000952885
72.99,0.001429285
78.78,0.001642083
84.56,0.001919586
90.35,0.002193697
96.13,0.002365683
101.92,0.002424253
107.7,0.002697265
113.49,0.002660714
119.27,0.002749697
125.06,0.002854215
130.85,0.002712049
136.63,0.002734645
142.42,0.002623366
148.2,0.002408668
153.99,0.002400458
159.77,0.002154036
165.56,0.001964108
171.34,0.001914673
177.13,0.00172153
182.91,0.001569138
188.7,0.00140722
194.48,0.001242074
200.27,0.001105722
206.06,0.001125055
211.84,0.001043762
217.63,0.000976672
223.41,0.000892274
229.2,0.000809357
234.98,0.000796917
240.77,0.00079303
246.55,0.000877853
252.34,0.000838202
258.12,0.00083365
263.91,0.00096739
269.69,0.000812109
275.48,0.000831316
281.27,0.000771838
287.05,0.000814143
292.84,0.000939094
298.62,0.001175123
304.41,0.001230075
310.19,0.001400537
315.98,0.001610208
321.76,0.001684916
327.55,0.001970495
333.33,0.002311828
339.12,0.002884658
344.91,0.003565687
350.69,0.004329146
356.48,0.005149252
362.26,0.005913487
368.05,0.00670665
373.83,0.007518903
379.62,0.008274869
385.4,0.008878933
391.19,0.00989628
396.97,0.0106888
402.76,0.0111593
408.54,0.01197422
414.33,0.0120435
420.12,0.0124116
425.9,0.0123278
431.69,0.01231625
437.47,0.0124177
443.26,0.0120203
449.04,0.0122482
454.83,0.0120878
460.61,0.0115951
466.4,0.0119015
472.18,0.0114512
477.97,0.0113909
483.75,0.0116309
489.54,0.0110378
495.33,0.0105981
501.11,0.0102135
506.9,0.01000208
512.68,0.009611546
518.47,0.009217715
524.25,0.008086641
530.04,0.00730417
535.82,0.006895336
541.61,0.005545363
547.39,0.004689992
553.18,0.00287193
558.96,0.002274643
564.75,0.000890491
570.54,0.000441546
576.32,0.000147177
582.11,0.000119151
587.89,0.000804664
593.68,0.001542841
599.46,0.002647936
605.25,0.003721006
611.03,0.00502841
616.82,0.006699371
622.6,0.008240971
628.39,0.009658335
634.18,0.0111427
639.96,0.0120891
645.75,0.012926
651.53,0.0140706
657.32,0.0145366
663.1,0.0154817
668.89,0.01650902
674.67,0.017274
680.46,0.0180852
686.24,0.01850443
692.03,0.0187089
697.81,0.01872508
703.6,0.0188317
709.39,0.0205082
715.17,0.0218391
720.96,0.0237219
726.74,0.02548543
732.53,0.02731994
738.31,0.0292058
744.1,0.0319023
749.88,0.0341179
755.67,0.0357396
761.45,0.036216
767.24,0.0351842
773.02,0.0314781
778.81,0.0263016
784.6,0.019726
790.38,0.0137219
796.17,0.008611877
801.95,0.005255337
807.74,0.003832697
813.52,0.003426294
819.31,0.004718682
825.09,0.006873426
830.88,0.008226136
836.66,0.0105961
842.45,0.01193661
848.23,0.01257956
854.02,0.0135032
859.81,0.0137658
865.59,0.0140838
871.38,0.01358
877.16,0.0131978
882.95,0.0115155
888.73,0.0102271
894.52,0.009503804
900.3,0.0100198
906.09,0.0108566
911.87,0.012896
917.66,0.016376
923.45,0.0199934
929.23,0.0244637
935.02,0.0280332
940.8,0.0320335
946.59,0.0353495
952.37,0.0382833
958.16,0.0403748
963.94,0.0418026
969.73,0.0423463
975.51,0.0431056
981.3,0.0428479
987.08,0.042013
992.87,0.040464
998.66,0.0370109
1004.44,0.0336597
1010.23,0.0289819
1016.01,0.025007
1021.8,0.0209029
1027.58,0.0176484
1033.37,0.014412
1039.15,0.0123325
1044.94,0.009544597
1050.72,0.007663673
1056.51,0.006021801
1062.3,0.004445994
1068.08,0.003413487
1073.87,0.002600816
1079.65,0.000952444
1085.44,0.000937012
1091.22,-1.08E-06
1097.01,0.000207019
1102.79,0.000555887
1108.58,0.000577469
1114.36,0.001157251
1120.15,0.002570038
1125.93,0.004058272
1131.72,0.004940772
1137.51,0.00665909
1143.29,0.009016207
1149.08,0.0113111
1154.86,0.0134368
1160.65,0.0155309
1166.43,0.01807664
1172.22,0.0199107
1178,0.0218569
1183.79,0.0235318
1189.57,0.0252385
1195.36,0.026124
1201.14,0.0270865
1206.93,0.02844896
1212.72,0.0296717
1218.5,0.0295196
1224.29,0.0303522
1230.07,0.0311109
1235.86,0.0315784
1241.64,0.0320048
1247.43,0.0324094
1253.21,0.03300492
1259,0.0328758
1264.78,0.0334257
1270.57,0.0341063
1276.35,0.0346404
1282.14,0.0348053
1287.93,0.0359046
1293.71,0.0369809
1299.5,0.0381026
1305.28,0.038401
1311.07,0.0391416
1316.85,0.041023
1322.64,0.0422778
1328.42,0.0432997
1334.21,0.0450074
1339.99,0.0460031
1345.78,0.0471368
1351.57,0.0491902
1357.35,0.0501556
1363.14,0.052122
1368.92,0.0531175
1374.71,0.0543859
1380.49,0.0558423
1386.28,0.0564098
1392.06,0.0575538
1397.85,0.0582219
1403.63,0.0581568
1409.42,0.05918611
1415.2,0.0587249
1420.99,0.0592663
1426.78,0.0592034
1432.56,0.0590672
1438.35,0.0587332
1444.13,0.0584628
1449.92,0.05765324
1455.7,0.0573219
1461.49,0.0559842
1467.27,0.0545098
1473.06,0.0528092
1478.84,0.05058743
1484.63,0.0475456
1490.41,0.044086
1496.2,0.0401541
1501.99,0.03664084
1507.77,0.0326914
1513.56,0.028833
1519.34,0.0255273
1525.13,0.0230868
1530.91,0.0196475
1536.7,0.0174641
1542.48,0.0146765
1548.27,0.0125212
1554.05,0.0123542
1559.84,0.00900153
1565.62,0.006704173
1571.41,0.004935399
1577.2,0.003712212
1582.98,0.002388017
1588.77,0.001237238
1594.55,0.000897384
1599.37,-3.78E-05

File: JC_UG_CaZn2_5th_cut_bas_ther_vect_040624.csv
RamanShift,CaZn2
49.85,-6.86E-05
55.64,0.000208309
61.42,0.000610889
67.21,0.000697049
72.99,0.001143934
78.78,0.001300326
84.56,0.001539443
90.35,0.001749906
96.13,0.001915589
101.92,0.001919921
107.7,0.002223724
113.49,0.002142867
119.27,0.002249105
125.06,0.002351184
130.85,0.002247451
136.63,0.002266726
142.42,0.002240747
148.2,0.002089507
153.99,0.002147764
159.77,0.001976076
165.56,0.001879874
171.34,0.001913684
177.13,0.001781608
182.91,0.001711554
188.7,0.001689736
194.48,0.001589559
200.27,0.001526801
206.06,0.001646856
211.84,0.001604097
217.63,0.001687438
223.41,0.001698889
229.2,0.001680343
234.98,0.00172785
240.77,0.001765494
246.55,0.001936815
252.34,0.001981364
258.12,0.002057391
263.91,0.002219656
269.69,0.002143691
275.48,0.002171631
281.27,0.002164902
287.05,0.00222584
292.84,0.002410075
298.62,0.002622119
304.41,0.002718114
310.19,0.002934113
315.98,0.003160843
321.76,0.003297319
327.55,0.003569522
333.33,0.003967364
339.12,0.004524892
344.91,0.005218859
350.69,0.006042978
356.48,0.006864066
362.26,0.007717182
368.05,0.008581228
373.83,0.009347783
379.62,0.01015202
385.4,0.0107733
391.19,0.0117314
396.97,0.0124693
402.76,0.0128027
408.54,0.0134765
414.33,0.0133959
420.12,0.0135871
425.9,0.0133403
431.69,0.013194
437.47,0.0129994
443.26,0.0125212
449.04,0.0125105
454.83,0.0121786
460.61,0.0116999
466.4,0.0117522
472.18,0.0112693
477.97,0.0111088
483.75,0.0111733
489.54,0.0106617
495.33,0.0101049
501.11,0.009663578
506.9,0.009305829
512.68,0.00881957
518.47,0.008237453
524.25,0.007282193
530.04,0.006524318
535.82,0.005999439
541.61,0.004746097
547.39,0.003956311
553.18,0.002343759
558.96,0.001757184
564.75,0.000606493
570.54,0.00019125
576.32,7.74E-05
582.11,0.000224832
587.89,0.000914616
593.68,0.001797804
599.46,0.00285397
605.25,0.003972712
611.03,0.005306952
616.82,0.006816836
622.6,0.008123995
628.39,0.009669144
634.18,0.0110216
639.96,0.0123932
645.75,0.0136413
651.53,0.01518
657.32,0.0162172
663.1,0.0175212
668.89,0.018882
674.67,0.0195519
680.46,0.0199696
686.24,0.01976
692.03,0.0194402
697.81,0.01882686
703.6,0.0182338
709.39,0.0191671
715.17,0.01999081
720.96,0.0210152
726.74,0.0224771
732.53,0.0237736
738.31,0.02527267
744.1,0.0273144
749.88,0.0289857
755.67,0.0300728
761.45,0.0302746
767.24,0.0290949
773.02,0.0260554
778.81,0.0218547
784.6,0.0163423
790.38,0.0115565
796.17,0.007351262
801.95,0.004199302
807.74,0.002669242
813.52,0.002049918
819.31,0.002550434
825.09,0.003870313
830.88,0.004769839
836.66,0.006435871
842.45,0.007418908
848.23,0.007911525
854.02,0.008506203
859.81,0.008594835
865.59,0.008712694
871.38,0.008142761
877.16,0.007596398
882.95,0.006344675
888.73,0.005394606
894.52,0.004829265
900.3,0.005300108
906.09,0.006236468
911.87,0.00801905
917.66,0.0109163
923.45,0.013749
929.23,0.017051
935.02,0.0197356
940.8,0.0226682
946.59,0.0251223
952.37,0.0273513
958.16,0.0287212
963.94,0.02969055
969.73,0.0302336
975.51,0.03077043
981.3,0.0306482
987.08,0.0302315
992.87,0.029526
998.66,0.0270341
1004.44,0.0248797
1010.23,0.021465
1016.01,0.018628
1021.8,0.0155884
1027.58,0.013345
1033.37,0.0109482
1039.15,0.009436272
1044.94,0.007554632
1050.72,0.006014136
1056.51,0.004636934
1062.3,0.003414373
1068.08,0.00248171
1073.87,0.001655765
1079.65,0.000602373
1085.44,0.000430015
1091.22,4.19E-06
1097.01,0.000506199
1102.79,0.001282691
1108.58,0.001924866
1114.36,0.003065098
1120.15,0.005159138
1125.93,0.007354333
1131.72,0.009449814
1137.51,0.01202719
1143.29,0.0152253
1149.08,0.0183402
1154.86,0.0213695
1160.65,0.0242972
1166.43,0.0272328
1172.22,0.0297525
1178,0.0321105
1183.79,0.0340105
1189.57,0.0359321
1195.36,0.0369639
1201.14,0.0379841
1206.93,0.0390296
1212.72,0.0399308
1218.5,0.0399501
1224.29,0.0405049
1230.07,0.0406732
1235.86,0.0407281
1241.64,0.0406973
1247.43,0.040901
1253.21,0.0409352
1259,0.0409754
1264.78,0.041543
1270.57,0.0421621
1276.35,0.0425811
1282.14,0.0428127
1287.93,0.044105
1293.71,0.0452734
1299.5,0.0465664
1305.28,0.0471981
1311.07,0.0479901
1316.85,0.0497733
1322.64,0.0510876
1328.42,0.0518829
1334.21,0.053236
1339.99,0.053938
1345.78,0.0545189
1351.57,0.0557747
1357.35,0.0562557
1363.14,0.0571863
1368.92,0.0576144
1374.71,0.058488
1380.49,0.0589051
1386.28,0.0585778
1392.06,0.0588442
1397.85,0.0588891
1403.63,0.058083
1409.42,0.0581365
1415.2,0.0570591
1420.99,0.0570023
1426.78,0.0556828
1432.56,0.0548874
1438.35,0.0537491
1444.13,0.0527997
1449.92,0.0512133
1455.7,0.0498416
1461.49,0.0481893
1467.27,0.0462328
1473.06,0.0440155
1478.84,0.0415715
1484.63,0.0387438
1490.41,0.0355845
1496.2,0.0323029
1501.99,0.0293963
1507.77,0.0260745
1513.56,0.02327024
1519.34,0.0204358
1525.13,0.0183098
1530.91,0.0162012
1536.7,0.0141206
1542.48,0.011937
1548.27,0.0104741
1554.05,0.0108802
1559.84,0.00818154
1565.62,0.005568967
1571.41,0.003906888
1577.2,0.003283241
1582.98,0.002044178
1588.77,0.00097184
1594.55,0.000472293
1599.37,9.12E-05

File: JC_UG_CaZn3_5th_cut_bas_ther_vect_040624.csv
RamanShift,CaZn3
49.85,-0.000250548
55.64,-5.32E-05
61.42,0.000253616
67.21,0.000296493
72.99,0.000648639
78.78,0.000745568
84.56,0.000914179
90.35,0.001066933
96.13,0.001180947
101.92,0.001157218
107.7,0.001380788
113.49,0.001286863
119.27,0.001363196
125.06,0.001431574
130.85,0.001317332
136.63,0.001329735
142.42,0.001304665
148.2,0.001150002
153.99,0.001212601
159.77,0.001065674
165.56,0.001007294
171.34,0.001033901
177.13,0.000938612
182.91,0.000905148
188.7,0.000904377
194.48,0.000845013
200.27,0.00080524
206.06,0.000929798
211.84,0.000956926
217.63,0.001049994
223.41,0.001086805
229.2,0.001114941
234.98,0.001232535
240.77,0.001296238
246.55,0.001485832
252.34,0.001564376
258.12,0.001681752
263.91,0.00187088
269.69,0.00183325
275.48,0.001904352
281.27,0.001928913
287.05,0.002040913
292.84,0.002203256
298.62,0.002439542
304.41,0.002543996
310.19,0.002762649
315.98,0.003005529
321.76,0.003140908
327.55,0.00350119
333.33,0.003887816
339.12,0.004466572
344.91,0.005148116
350.69,0.005953273
356.48,0.006770665
362.26,0.007624467
368.05,0.008438708
373.83,0.009283677
379.62,0.0100844
385.4,0.01073108
391.19,0.0115652
396.97,0.0122733
402.76,0.0126279
408.54,0.01323959
414.33,0.0132324
420.12,0.0133673
425.9,0.0130644
431.69,0.0129308
437.47,0.0127833
443.26,0.0122745
449.04,0.0121955
454.83,0.0118219
460.61,0.01136913
466.4,0.0113772
472.18,0.0109576
477.97,0.0108383
483.75,0.0109193
489.54,0.0103506
495.33,0.009843513
501.11,0.00939721
506.9,0.009004453
512.68,0.008489884
518.47,0.007896787
524.25,0.006872055
530.04,0.006105666
535.82,0.005547716
541.61,0.00433926
547.39,0.003544212
553.18,0.002062367
558.96,0.001510097
564.75,0.000420475
570.54,0.000204732
576.32,0.000147101
582.11,0.000334353
587.89,0.001132208
593.68,0.002075393
599.46,0.003136939
605.25,0.004314751
611.03,0.005585474
616.82,0.00708914
622.6,0.008364552
628.39,0.009858248
634.18,0.0114314
639.96,0.012882
645.75,0.0142749
651.53,0.0159875
657.32,0.0173277
663.1,0.0189033
668.89,0.0203777
674.67,0.021066
680.46,0.02145369
686.24,0.0211738
692.03,0.0205204
697.81,0.0196977
703.6,0.0188499
709.39,0.0195468
715.17,0.0200662
720.96,0.0210295
726.74,0.0223133
732.53,0.02354091
738.31,0.0250246
744.1,0.0268368
749.88,0.0284458
755.67,0.0292852
761.45,0.0291632
767.24,0.0277496
773.02,0.0246248
778.81,0.0204047
784.6,0.0152299
790.38,0.0106667
796.17,0.00675979
801.95,0.003845577
807.74,0.002386015
813.52,0.00167939
819.31,0.002080386
825.09,0.003057496
830.88,0.003567578
836.66,0.005043186
842.45,0.005803388
848.23,0.00606127
854.02,0.006434904
859.81,0.006304292
865.59,0.006417381
871.38,0.005819012
877.16,0.005260262
882.95,0.004108062
888.73,0.003409296
894.52,0.002970173
900.3,0.003548544
906.09,0.004586643
911.87,0.006447593
917.66,0.009293976
923.45,0.0117711
929.23,0.0146911
935.02,0.0169829
940.8,0.0194859
946.59,0.0214351
952.37,0.023075
958.16,0.0241379
963.94,0.0247043
969.73,0.0250433
975.51,0.0252664
981.3,0.025044
987.08,0.0248143
992.87,0.0241041
998.66,0.02210135
1004.44,0.0202313
1010.23,0.0173512
1016.01,0.0151831
1021.8,0.0126646
1027.58,0.0107445
1033.37,0.008972184
1039.15,0.007766623
1044.94,0.006222308
1050.72,0.004940846
1056.51,0.003721976
1062.3,0.002739321
1068.08,0.002028009
1073.87,0.00137722
1079.65,0.000540179
1085.44,0.000482565
1091.22,6.65E-05
1097.01,0.000792476
1102.79,0.001576392
1108.58,0.00257565
1114.36,0.003971097
1120.15,0.006208215
1125.93,0.008671003
1131.72,0.01113829
1137.51,0.0139592
1143.29,0.0174528
1149.08,0.0208188
1154.86,0.02422524
1160.65,0.027294
1166.43,0.0305189
1172.22,0.033109
1178,0.0357145
1183.79,0.0377909
1189.57,0.0394779
1195.36,0.04069952
1201.14,0.0415571
1206.93,0.0426312
1212.72,0.0432857
1218.5,0.0431307
1224.29,0.0435177
1230.07,0.04354
1235.86,0.0433642
1241.64,0.0434356
1247.43,0.0433146
1253.21,0.043298
1259,0.0432774
1264.78,0.04390554
1270.57,0.0445077
1276.35,0.0450377
1282.14,0.0453514
1287.93,0.0465996
1293.71,0.0479348
1299.5,0.0492743
1305.28,0.0500608
1311.07,0.0510005
1316.85,0.0527057
1322.64,0.0539707
1328.42,0.0546524
1334.21,0.0558873
1339.99,0.0565397
1345.78,0.0569382
1351.57,0.0579849
1357.35,0.0583146
1363.14,0.058767
1368.92,0.058965
1374.71,0.059319
1380.49,0.0592896
1386.28,0.0588294
1392.06,0.0586883
1397.85,0.05838968
1403.63,0.0572583
1409.42,0.0569924
1415.2,0.0557046
1420.99,0.0551953
1426.78,0.053668
1432.56,0.0528027
1438.35,0.0513624
1444.13,0.0499385
1449.92,0.04811418
1455.7,0.0464729
1461.49,0.0445058
1467.27,0.04245184
1473.06,0.0402646
1478.84,0.03786916
1484.63,0.035015
1490.41,0.0318888
1496.2,0.0288298
1501.99,0.0260443
1507.77,0.0230878
1513.56,0.0205791
1519.34,0.0180336
1525.13,0.0159551
1530.91,0.01395
1536.7,0.0123076
1542.48,0.01028043
1548.27,0.00891134
1554.05,0.009255581
1559.84,0.007120403
1565.62,0.004716796
1571.41,0.00329896
1577.2,0.002573659
1582.98,0.001610916
1588.77,0.000688312
1594.55,0.000393699
1599.37,3.92E-05

File: JC_UG_CaZn4_5th_cut_bas_ther_vect_040624.csv
RamanShift,CaZn4
49.85,-2.70E-05
55.64,0.000218567
61.42,0.000541207
67.21,0.000604373
72.99,0.001033072
78.78,0.001079241
84.56,0.001266419
90.35,0.001514689
96.13,0.001546253
101.92,0.001552457
107.7,0.001834449
113.49,0.001683752
119.27,0.001783941
125.06,0.001861676
130.85,0.001736571
136.63,0.001819378
142.42,0.001731027
148.2,0.001565886
153.99,0.001698089
159.77,0.00157271
165.56,0.001507363
171.34,0.001582127
177.13,0.001484045
182.91,0.001527579
188.7,0.00151776
194.48,0.001494492
200.27,0.001505519
206.06,0.0016276
211.84,0.001709862
217.63,0.001813622
223.41,0.001888743
229.2,0.001972455
234.98,0.002130573
240.77,0.002179966
246.55,0.002412504
252.34,0.002508509
258.12,0.002616484
263.91,0.002820157
269.69,0.002772051
275.48,0.002932008
281.27,0.002851046
287.05,0.003035574
292.84,0.00315657
298.62,0.003442395
304.41,0.003581177
310.19,0.00376232
315.98,0.004080878
321.76,0.004143038
327.55,0.004484461
333.33,0.004896686
339.12,0.005465321
344.91,0.006111706
350.69,0.006970187
356.48,0.007714202
362.26,0.008567539
368.05,0.009268495
373.83,0.0100925
379.62,0.0109276
385.4,0.01133897
391.19,0.0120383
396.97,0.0127752
402.76,0.0129793
408.54,0.0135731
414.33,0.0136297
420.12,0.0136842
425.9,0.0133899
431.69,0.0133148
437.47,0.0130759
443.26,0.0124236
449.04,0.012562
454.83,0.0120772
460.61,0.0114307
466.4,0.011427
472.18,0.0109283
477.97,0.0109303
483.75,0.0109946
489.54,0.0103941
495.33,0.009835862
501.11,0.009226316
506.9,0.0088403
512.68,0.008482383
518.47,0.007848097
524.25,0.006686273
530.04,0.005714499
535.82,0.00534092
541.61,0.003900196
547.39,0.003357261
553.18,0.001734128
558.96,0.001420177
564.75,0.000180028
570.54,0.000123959
576.32,0.000259908
582.11,0.000621471
587.89,0.00132332
593.68,0.002588111
599.46,0.003603977
605.25,0.00461246
611.03,0.005941673
616.82,0.007480693
622.6,0.009002964
628.39,0.0103001
634.18,0.0120831
639.96,0.013521
645.75,0.0151041
651.53,0.0171029
657.32,0.0188381
663.1,0.0204946
668.89,0.0220018
674.67,0.0229947
680.46,0.0230304
686.24,0.0228087
692.03,0.0221315
697.81,0.0210775
703.6,0.0201305
709.39,0.0209392
715.17,0.0215846
720.96,0.0226178
726.74,0.0234187
732.53,0.0244777
738.31,0.0256595
744.1,0.0277851
749.88,0.0287796
755.67,0.0297647
761.45,0.0293395
767.24,0.02777977
773.02,0.02481515
778.81,0.0207169
784.6,0.0158624
790.38,0.0115518
796.17,0.007899803
801.95,0.004893956
807.74,0.003651086
813.52,0.002805857
819.31,0.003076188
825.09,0.003955781
830.88,0.004357501
836.66,0.00549872
842.45,0.006352831
848.23,0.006539354
854.02,0.006650658
859.81,0.006784909
865.59,0.006394574
871.38,0.005764567
877.16,0.004933112
882.95,0.003954565
888.73,0.003265541
894.52,0.002565258
900.3,0.003081292
906.09,0.003567675
911.87,0.005294032
917.66,0.007793136
923.45,0.009651307
929.23,0.0128472
935.02,0.0147341
940.8,0.01662557
946.59,0.018368
952.37,0.0193879
958.16,0.0200947
963.94,0.0211658
969.73,0.0207464
975.51,0.0212495
981.3,0.0209821
987.08,0.0205478
992.87,0.0202002
998.66,0.0186984
1004.44,0.016704
1010.23,0.01426803
1016.01,0.0122638
1021.8,0.0104168
1027.58,0.008856458
1033.37,0.007219819
1039.15,0.006395211
1044.94,0.004828072
1050.72,0.003718066
1056.51,0.003121436
1062.3,0.001667907
1068.08,0.001275887
1073.87,0.000387281
1079.65,0.000144955
1085.44,0.000936254
1091.22,0.001816703
1097.01,0.001659972
1102.79,0.002118763
1108.58,0.003027976
1114.36,0.004317253
1120.15,0.007401659
1125.93,0.009753632
1131.72,0.0116312
1137.51,0.0146029
1143.29,0.0176544
1149.08,0.0214161
1154.86,0.024738
1160.65,0.0274023
1166.43,0.0306256
1172.22,0.0327253
1178,0.03570216
1183.79,0.0379229
1189.57,0.0395982
1195.36,0.0404686
1201.14,0.0412826
1206.93,0.0422811
1212.72,0.043622
1218.5,0.0426747
1224.29,0.0432254
1230.07,0.043927
1235.86,0.0435031
1241.64,0.043539
1247.43,0.0434136
1253.21,0.0435846
1259,0.0433153
1264.78,0.0441148
1270.57,0.0449226
1276.35,0.04527713
1282.14,0.0459792
1287.93,0.0471541
1293.71,0.0489057
1299.5,0.0502531
1305.28,0.0506407
1311.07,0.0522548
1316.85,0.0541683
1322.64,0.0553722
1328.42,0.05673642
1334.21,0.0572133
1339.99,0.0581209
1345.78,0.0592778
1351.57,0.0591211
1357.35,0.0595106
1363.14,0.0604821
1368.92,0.0609435
1374.71,0.0607573
1380.49,0.0614434
1386.28,0.060239
1392.06,0.0595216
1397.85,0.0588345
1403.63,0.0572667
1409.42,0.05717425
1415.2,0.0556705
1420.99,0.0545842
1426.78,0.0532925
1432.56,0.0512138
1438.35,0.04989966
1444.13,0.0479154
1449.92,0.0461322
1455.7,0.0445105
1461.49,0.0432944
1467.27,0.0401028
1473.06,0.0380616
1478.84,0.0354661
1484.63,0.0326399
1490.41,0.0299133
1496.2,0.0266759
1501.99,0.0238583
1507.77,0.0214966
1513.56,0.0181913
1519.34,0.0164891
1525.13,0.0150082
1530.91,0.0123231
1536.7,0.0109559
1542.48,0.00945276
1548.27,0.008193766
1554.05,0.0107758
1559.84,0.006084091
1565.62,0.004229583
1571.41,0.002964238
1577.2,0.001905393
1582.98,0.002127166
1588.77,0.000815971
1594.55,0.001066277
1599.37,9.67E-06