Folder: MATLAB-Drive/PhD Work/Raman Plotter_050524/Plot Data/UG Glasses/NBS

File: JC_UG_NBS1_5th_cut_bas_ther_vect_050624.csv
RamanShift,NBS1
49.85,-0.000163984
55.64,-7.83709E-05
61.42,1.48964E-06
67.21,1.9432E-05
72.99,0.000135496
78.78,0.000150331
84.56,0.00020334
90.35,0.000283913
96.13,0.000297242
101.92,0.000309906
107.7,0.000401342
113.49,0.000410456
119.27,0.000448145
125.06,0.000513897
130.85,0.000498588
136.63,0.0005503
142.42,0.000539815
148.2,0.000518036
153.99,0.000560329
159.77,0.000498198
165.56,0.000459818
171.34,0.000469167
177.13,0.000416534
182.91,0.000358896
188.7,0.0002956
194.48,0.000212742
200.27,0.000168244
206.06,0.000156115
211.84,0.000148419
217.63,0.00011878
223.41,6.52994E-05
229.2,1.82497E-05
234.98,4.29932E-05
240.77,3.22244E-05
246.55,9.72168E-05
252.34,9.62468E-05
258.12,0.000161086
263.91,0.000255168
269.69,0.000273314
275.48,0.000392621
281.27,0.000507133
287.05,0.00067761
292.84,0.000877048
298.62,0.001158875
304.41,0.001380882
310.19,0.00166893
315.98,0.001990524
321.76,0.00217008
327.55,0.002544852
333.33,0.002800165
339.12,0.003180169
344.91,0.003550259
350.69,0.003961645
356.48,0.004418849
362.26,0.004785208
368.05,0.005175232
373.83,0.005571653
379.62,0.005908896
385.4,0.006285213
391.19,0.00688639
396.97,0.007419446
402.76,0.007826648
408.54,0.00855283
414.33,0.008983046
420.12,0.009596792
425.9,0.0101434
431.69,0.0108157
437.47,0.0116507
443.26,0.0121829
449.04,0.0131852
454.83,0.0140597
460.61,0.0148424
466.4,0.0160198
472.18,0.0168855
477.97,0.0179089
483.75,0.0191799
489.54,0.0199609
495.33,0.020801
501.11,0.0218239
506.9,0.0230203
512.68,0.0242594
518.47,0.0255277
524.25,0.02652467
530.04,0.0276175
535.82,0.0289509
541.61,0.0293618
547.39,0.0299842
553.18,0.02953672
558.96,0.0296577
564.75,0.0290794
570.54,0.0285836
576.32,0.0279063
582.11,0.0271114
587.89,0.02629331
593.68,0.0255649
599.46,0.0252617
605.25,0.0252816
611.03,0.0264007
616.82,0.0284297
622.6,0.0304241
628.39,0.0312224
634.18,0.0308572
639.96,0.0293609
645.75,0.0269371
651.53,0.0249655
657.32,0.0229813
663.1,0.0216036
668.89,0.0203942
674.67,0.0190439
680.46,0.0176698
686.24,0.0161357
692.03,0.015199
697.81,0.0141822
703.6,0.0133465
709.39,0.0128477
715.17,0.0119354
720.96,0.01118284
726.74,0.0105877
732.53,0.0101918
738.31,0.0101208
744.1,0.0100668
749.88,0.00966226
755.67,0.008884115
761.45,0.008017113
767.24,0.007108609
773.02,0.005888494
778.81,0.005072963
784.6,0.003990134
790.38,0.002990599
796.17,0.002034141
801.95,0.00104287
807.74,0.000536079
813.52,0.000167719
819.31,6.33562E-05
825.09,0.000491765
830.88,0.001071051
836.66,0.0022077
842.45,0.00337358
848.23,0.004662403
854.02,0.005903637
859.81,0.007349817
865.59,0.008757613
871.38,0.0103559
877.16,0.0122046
882.95,0.0137378
888.73,0.0156613
894.52,0.0175667
900.3,0.0196861
906.09,0.02128315
911.87,0.0231445
917.66,0.0251849
923.45,0.0270032
929.23,0.0296453
935.02,0.0313634
940.8,0.0333058
946.59,0.0346346
952.37,0.0356534
958.16,0.03642262
963.94,0.036941
969.73,0.0371814
975.51,0.0378627
981.3,0.0385812
987.08,0.0392982
992.87,0.0400526
998.66,0.04091725
1004.44,0.0425466
1010.23,0.0444671
1016.01,0.0471062
1021.8,0.05036604
1027.58,0.0545231
1033.37,0.0590427
1039.15,0.0648807
1044.94,0.0701458
1050.72,0.0754004
1056.51,0.0807798
1062.3,0.0847646
1068.08,0.0882593
1073.87,0.0900178
1079.65,0.0890862
1085.44,0.0882528
1091.22,0.084702
1097.01,0.08007464
1102.79,0.0748531
1108.58,0.06843974
1114.36,0.0621775
1120.15,0.0563755
1125.93,0.0503331
1131.72,0.0443701
1137.51,0.039324
1143.29,0.03446946
1149.08,0.030102
1154.86,0.025739
1160.65,0.0217381
1166.43,0.0185771
1172.22,0.0152715
1178,0.0125978
1183.79,0.0103752
1189.57,0.008183728
1195.36,0.006496098
1201.14,0.005079318
1206.93,0.003791827
1212.72,0.003005086
1218.5,0.002022217
1224.29,0.001469816
1230.07,0.000947205
1235.86,0.000628011
1241.64,0.000226283
1247.43,3.45991E-05
1253.21,-8.22453E-05
1259,-0.000309519
1264.78,-0.000247186
1270.57,-0.0002937
1276.35,-4.12435E-05
1282.14,-0.00018667
1287.93,0.000120288
1293.71,0.000231788
1299.5,0.000592217
1305.28,0.000648014
1311.07,0.001034321
1316.85,0.001311116
1322.64,0.001622761
1328.42,0.001789621
1334.21,0.002077802
1339.99,0.002148436
1345.78,0.002388363
1351.57,0.00242687
1357.35,0.002476586
1363.14,0.002877651
1368.92,0.002965323
1374.71,0.003084491
1380.49,0.003314757
1386.28,0.003335214
1392.06,0.003565868
1397.85,0.003802365
1403.63,0.003979989
1409.42,0.004233631
1415.2,0.00432172
1420.99,0.004684885
1426.78,0.004990399
1432.56,0.00502748
1438.35,0.005512344
1444.13,0.005883223
1449.92,0.006196431
1455.7,0.006594775
1461.49,0.006827773
1467.27,0.006879939
1473.06,0.006642203
1478.84,0.006228256
1484.63,0.005677794
1490.41,0.00498284
1496.2,0.004248938
1501.99,0.00366129
1507.77,0.003015467
1513.56,0.002453153
1519.34,0.001895995
1525.13,0.001525123
1530.91,0.001195965
1536.7,0.000950134
1542.48,0.000508382
1548.27,0.000358383
1554.05,0.001268353
1559.84,0.000195967
1565.62,6.28479E-05
1571.41,-2.04503E-06
1577.2,3.33793E-05
1582.98,1.50034E-05
1588.77,0.000207439
1594.55,0.000437187
1599.37,0.000392043

File: JC_UG_NBS2_5th_cut_bas_ther_vect_050624.csv
RamanShift,NBS2
49.85,-3.32601E-05
55.64,7.51439E-05
61.42,0.000186516
67.21,0.000219189
72.99,0.000363299
78.78,0.000396938
84.56,0.000472293
90.35,0.000563669
96.13,0.000603827
101.92,0.000624756
107.7,0.000728676
113.49,0.000733844
119.27,0.000780217
125.06,0.000851566
130.85,0.00083128
136.63,0.000868573
142.42,0.000859471
148.2,0.000811741
153.99,0.000847297
159.77,0.000766688
165.56,0.000711674
171.34,0.000709569
177.13,0.000621555
182.91,0.000552215
188.7,0.000471497
194.48,0.000383942
200.27,0.000306997
206.06,0.000301572
211.84,0.000240974
217.63,0.000197944
223.41,0.000131719
229.2,6.33853E-05
234.98,4.39552E-05
240.77,2.22111E-05
246.55,5.52424E-05
252.34,4.3353E-05
258.12,5.60143E-05
263.91,0.000133394
269.69,0.000118416
275.48,0.000200612
281.27,0.000257954
287.05,0.000386762
292.84,0.000567837
298.62,0.000831521
304.41,0.00103164
310.19,0.001275184
315.98,0.001600785
321.76,0.001828049
327.55,0.002142578
333.33,0.002469552
339.12,0.002859642
344.91,0.003277538
350.69,0.003732736
356.48,0.004162115
362.26,0.004601857
368.05,0.005003905
373.83,0.005427849
379.62,0.005885098
385.4,0.00626129
391.19,0.006876344
396.97,0.007450965
402.76,0.007913287
408.54,0.008645089
414.33,0.009112588
420.12,0.009773694
425.9,0.0102963
431.69,0.0110107
437.47,0.0118378
443.26,0.0124402
449.04,0.0134417
454.83,0.01428534
460.61,0.0150249
466.4,0.0160979
472.18,0.01687977
477.97,0.0178137
483.75,0.0188477
489.54,0.0194902
495.33,0.0201413
501.11,0.0209566
506.9,0.0218752
512.68,0.0229017
518.47,0.023886
524.25,0.0246915
530.04,0.025767
535.82,0.026981
541.61,0.0274296
547.39,0.0278988
553.18,0.0273352
558.96,0.02711
564.75,0.0260458
570.54,0.0251241
576.32,0.0240471
582.11,0.022748
587.89,0.02169094
593.68,0.02063155
599.46,0.0198659
605.25,0.0194983
611.03,0.0198899
616.82,0.0210809
622.6,0.02228836
628.39,0.0229617
634.18,0.0227391
639.96,0.0216279
645.75,0.0200145
651.53,0.01868231
657.32,0.0173421
663.1,0.016511
668.89,0.0157962
674.67,0.01500461
680.46,0.0142378
686.24,0.013483
692.03,0.0129253
697.81,0.0124299
703.6,0.0118431
709.39,0.0116875
715.17,0.0111137
720.96,0.0107248
726.74,0.0104491
732.53,0.0104041
738.31,0.0104643
744.1,0.0106858
749.88,0.01043372
755.67,0.009876562
761.45,0.009164407
767.24,0.00832303
773.02,0.007359925
778.81,0.006491557
784.6,0.005514092
790.38,0.004827908
796.17,0.004097003
801.95,0.003539618
807.74,0.003214123
813.52,0.003095104
819.31,0.003489678
825.09,0.004290241
830.88,0.005178305
836.66,0.006816303
842.45,0.00850464
848.23,0.0102703
854.02,0.0122897
859.81,0.0143994
865.59,0.016929
871.38,0.01938585
877.16,0.0222848
882.95,0.025105
888.73,0.0282417
894.52,0.0313909
900.3,0.035058
906.09,0.0380431
911.87,0.04083286
917.66,0.043946
923.45,0.04659
929.23,0.0496408
935.02,0.0518252
940.8,0.0540835
946.59,0.0556165
952.37,0.0568718
958.16,0.057669
963.94,0.0579502
969.73,0.0577467
975.51,0.0574954
981.3,0.0568634
987.08,0.0559414
992.87,0.0551601
998.66,0.0542248
1004.44,0.05415773
1010.23,0.0543094
1016.01,0.055407
1021.8,0.05666096
1027.58,0.0588047
1033.37,0.06128256
1039.15,0.0644993
1044.94,0.0671678
1050.72,0.06974437
1056.51,0.07218844
1062.3,0.0736223
1068.08,0.0747026
1073.87,0.0743378
1079.65,0.0724364
1085.44,0.0706267
1091.22,0.0669612
1097.01,0.0630747
1102.79,0.0588192
1108.58,0.053714
1114.36,0.0489046
1120.15,0.0446049
1125.93,0.0401253
1131.72,0.0356368
1137.51,0.0316006
1143.29,0.02790807
1149.08,0.02438583
1154.86,0.0210686
1160.65,0.0179194
1166.43,0.0151933
1172.22,0.01252641
1178,0.0104
1183.79,0.008401498
1189.57,0.00666137
1195.36,0.0051411
1201.14,0.003930388
1206.93,0.003024128
1212.72,0.002250313
1218.5,0.001505307
1224.29,0.001110534
1230.07,0.000673403
1235.86,0.00046655
1241.64,0.000325326
1247.43,0.000195914
1253.21,0.000145538
1259,1.19114E-05
1264.78,0.000213742
1270.57,0.000307781
1276.35,0.000366643
1282.14,0.000437259
1287.93,0.000829679
1293.71,0.00117468
1299.5,0.001574539
1305.28,0.001935587
1311.07,0.002266069
1316.85,0.002881405
1322.64,0.00336282
1328.42,0.003695658
1334.21,0.004173061
1339.99,0.004522217
1345.78,0.004807459
1351.57,0.005338571
1357.35,0.00551093
1363.14,0.005911031
1368.92,0.006122698
1374.71,0.006489709
1380.49,0.006606439
1386.28,0.006587672
1392.06,0.006804464
1397.85,0.006888725
1403.63,0.006747624
1409.42,0.006908747
1415.2,0.006778214
1420.99,0.006970515
1426.78,0.0068613
1432.56,0.007085934
1438.35,0.007099928
1444.13,0.007358323
1449.92,0.007449877
1455.7,0.007609009
1461.49,0.007562892
1467.27,0.007462099
1473.06,0.00717271
1478.84,0.006749755
1484.63,0.006114655
1490.41,0.005454209
1496.2,0.004819201
1501.99,0.00419922
1507.77,0.003520595
1513.56,0.003147372
1519.34,0.002556637
1525.13,0.002158842
1530.91,0.001753106
1536.7,0.001483509
1542.48,0.001100299
1548.27,0.000966428
1554.05,0.001611474
1559.84,0.000783731
1565.62,0.000291052
1571.41,6.36933E-05
1577.2,9.4145E-05
1582.98,-4.91412E-05
1588.77,-0.000146292
1594.55,-5.6087E-05
1599.37,-4.31859E-05

File: JC_UG_NBS3_5th_cut_bas_ther_vect_050624.csv
RamanShift,NBS3
49.85,-0.000158567
55.64,-7.19589E-05
61.42,4.24808E-05
67.21,2.59944E-05
72.99,0.000144814
78.78,0.000175518
84.56,0.00021959
90.35,0.000268891
96.13,0.000317064
101.92,0.000302497
107.7,0.00040094
113.49,0.000381913
119.27,0.000420393
125.06,0.000487057
130.85,0.000456012
136.63,0.000476787
142.42,0.000479776
148.2,0.000428243
153.99,0.000458387
159.77,0.000397624
165.56,0.00034894
171.34,0.000350372
177.13,0.000301555
182.91,0.000248448
188.7,0.000201847
194.48,0.000124659
200.27,7.79893E-05
206.06,8.26761E-05
211.84,7.57742E-05
217.63,7.13911E-05
223.41,4.28856E-05
229.2,2.73083E-06
234.98,1.87329E-05
240.77,6.63114E-06
246.55,0.000102248
252.34,0.000132152
258.12,0.000182573
263.91,0.000279038
269.69,0.000290396
275.48,0.000398743
281.27,0.000486089
287.05,0.000655586
292.84,0.000843228
298.62,0.001125149
304.41,0.001374011
310.19,0.001651887
315.98,0.001964278
321.76,0.002193263
327.55,0.002557954
333.33,0.002924175
339.12,0.003389328
344.91,0.003824742
350.69,0.004332403
356.48,0.004832357
362.26,0.005297356
368.05,0.005758472
373.83,0.006221184
379.62,0.006673655
385.4,0.007136526
391.19,0.007751567
396.97,0.008324912
402.76,0.008847783
408.54,0.009593571
414.33,0.0100863
420.12,0.0108074
425.9,0.01133794
431.69,0.0120418
437.47,0.0128023
443.26,0.0134092
449.04,0.01438549
454.83,0.0152164
460.61,0.0159342
466.4,0.0169733
472.18,0.0176613
477.97,0.0185088
483.75,0.0195115
489.54,0.0200489
495.33,0.0205652
501.11,0.0212615
506.9,0.02211912
512.68,0.0230781
518.47,0.02401688
524.25,0.0247212
530.04,0.0257628
535.82,0.0271037
541.61,0.0275203
547.39,0.0280964
553.18,0.0274942
558.96,0.0273233
564.75,0.0262747
570.54,0.02533727
576.32,0.0242191
582.11,0.0230467
587.89,0.0219698
593.68,0.0208609
599.46,0.0200226
605.25,0.0193719
611.03,0.0193356
616.82,0.0199871
622.6,0.0206587
628.39,0.0210695
634.18,0.0208443
639.96,0.0200569
645.75,0.0188274
651.53,0.0178237
657.32,0.0167334
663.1,0.0161248
668.89,0.015676
674.67,0.015115
680.46,0.0146606
686.24,0.0140887
692.03,0.0138643
697.81,0.0134741
703.6,0.0132096
709.39,0.0132036
715.17,0.01287
720.96,0.0125409
726.74,0.01252346
732.53,0.0124013
738.31,0.01264167
744.1,0.01288786
749.88,0.0127947
755.67,0.0123541
761.45,0.0118412
767.24,0.0111707
773.02,0.0103583
778.81,0.009787772
784.6,0.008948928
790.38,0.00829782
796.17,0.007800796
801.95,0.007214109
807.74,0.007144735
813.52,0.007074952
819.31,0.007428267
825.09,0.008249153
830.88,0.009207333
836.66,0.0108648
842.45,0.01256677
848.23,0.0144728
854.02,0.01669055
859.81,0.0190351
865.59,0.021564
871.38,0.0243376
877.16,0.0277552
882.95,0.0308262
888.73,0.03438711
894.52,0.0380473
900.3,0.0420378
906.09,0.0451858
911.87,0.04844617
917.66,0.051633
923.45,0.0542477
929.23,0.0573568
935.02,0.05935262
940.8,0.0615401
946.59,0.062853
952.37,0.0638202
958.16,0.06433
963.94,0.0643373
969.73,0.0636708
975.51,0.0628879
981.3,0.0617157
987.08,0.0602237
992.87,0.0586431
998.66,0.0570847
1004.44,0.0563782
1010.23,0.0556598
1016.01,0.0558188
1021.8,0.0564086
1027.58,0.0575313
1033.37,0.0588433
1039.15,0.0609097
1044.94,0.0623886
1050.72,0.0638208
1056.51,0.0652911
1062.3,0.0656909
1068.08,0.0659834
1073.87,0.0651705
1079.65,0.0629961
1085.44,0.0612685
1091.22,0.0580886
1097.01,0.054451
1102.79,0.050827
1108.58,0.0464033
1114.36,0.04235577
1120.15,0.0385583
1125.93,0.0346517
1131.72,0.03085338
1137.51,0.0273825
1143.29,0.0241787
1149.08,0.0212583
1154.86,0.0182411
1160.65,0.0154514
1166.43,0.0131933
1172.22,0.0108722
1178,0.008912519
1183.79,0.007269387
1189.57,0.005684213
1195.36,0.004485884
1201.14,0.003513308
1206.93,0.002588747
1212.72,0.002093093
1218.5,0.001329736
1224.29,0.001018691
1230.07,0.000715505
1235.86,0.000563569
1241.64,0.000339062
1247.43,0.000263352
1253.21,0.000185294
1259,6.97872E-05
1264.78,0.000158865
1270.57,0.000157184
1276.35,0.000311429
1282.14,0.000285661
1287.93,0.000529194
1293.71,0.000821782
1299.5,0.001243609
1305.28,0.001418425
1311.07,0.00186547
1316.85,0.002310119
1322.64,0.002798803
1328.42,0.003026353
1334.21,0.003600111
1339.99,0.003972321
1345.78,0.004231524
1351.57,0.004625571
1357.35,0.004887064
1363.14,0.005414455
1368.92,0.005630512
1374.71,0.005649039
1380.49,0.005885641
1386.28,0.005787188
1392.06,0.005895488
1397.85,0.005856457
1403.63,0.005779854
1409.42,0.005722073
1415.2,0.005572309
1420.99,0.005692045
1426.78,0.005682519
1432.56,0.005428724
1438.35,0.005438031
1444.13,0.005473664
1449.92,0.005438471
1455.7,0.005465455
1461.49,0.005463634
1467.27,0.005219497
1473.06,0.00495662
1478.84,0.004680956
1484.63,0.004224088
1490.41,0.003555609
1496.2,0.003030563
1501.99,0.002702463
1507.77,0.002140151
1513.56,0.001697086
1519.34,0.001329472
1525.13,0.001056426
1530.91,0.000766452
1536.7,0.000604647
1542.48,0.000306086
1548.27,0.00017262
1554.05,0.000777035
1559.84,0.000377756
1565.62,-9.83247E-05
1571.41,-0.000152683
1577.2,-0.000211313
1582.98,-0.00017514
1588.77,-0.000112622
1594.55,3.93611E-05
1599.37,3.43849E-06

File: JC_UG_NBS4_5th_cut_bas_ther_vect_050624.csv
RamanShift,NBS4
49.85,-2.76994E-05
55.64,9.37121E-05
61.42,0.00024901
67.21,0.000246973
72.99,0.000414302
78.78,0.00045829
84.56,0.000534686
90.35,0.000609025
96.13,0.000672122
101.92,0.000666658
107.7,0.000793846
113.49,0.000770387
119.27,0.000822518
125.06,0.000894575
130.85,0.000864346
136.63,0.000880503
142.42,0.000885756
148.2,0.000821015
153.99,0.000853936
159.77,0.000757125
165.56,0.000707766
171.34,0.000709252
177.13,0.000612612
182.91,0.000552717
188.7,0.000489541
194.48,0.00039102
200.27,0.000314189
206.06,0.000303438
211.84,0.000262657
217.63,0.000227326
223.41,0.00016731
229.2,0.000100922
234.98,6.76047E-05
240.77,2.36128E-05
246.55,7.54795E-05
252.34,5.96247E-05
258.12,6.60334E-05
263.91,0.000109161
269.69,5.98763E-05
275.48,8.71663E-05
281.27,0.00011563
287.05,0.000226567
292.84,0.000362194
298.62,0.000604294
304.41,0.000773795
310.19,0.001011123
315.98,0.001280308
321.76,0.001451739
327.55,0.001798599
333.33,0.002104989
339.12,0.002567275
344.91,0.002983645
350.69,0.003463913
356.48,0.003965463
362.26,0.004392664
368.05,0.004851208
373.83,0.005295829
379.62,0.005681624
385.4,0.006131013
391.19,0.006688441
396.97,0.007273231
402.76,0.007733938
408.54,0.008487687
414.33,0.008941658
420.12,0.009609719
425.9,0.0101491
431.69,0.01081261
437.47,0.0115187
443.26,0.0121054
449.04,0.0130242
454.83,0.01383349
460.61,0.01448696
466.4,0.0154734
472.18,0.0160996
477.97,0.0168208
483.75,0.0177039
489.54,0.0181144
495.33,0.0184614
501.11,0.0189912
506.9,0.0196871
512.68,0.0204442
518.47,0.0212361
524.25,0.0218535
530.04,0.0228152
535.82,0.0240134
541.61,0.024323
547.39,0.0247189
553.18,0.0239484
558.96,0.0234262
564.75,0.0221659
570.54,0.02087
576.32,0.0194682
582.11,0.0179996
587.89,0.01660333
593.68,0.0151728
599.46,0.0139886
605.25,0.0129832
611.03,0.0124774
616.82,0.0126426
622.6,0.0129828
628.39,0.0130481
634.18,0.0126755
639.96,0.0119058
645.75,0.0107338
651.53,0.009791341
657.32,0.008874193
663.1,0.008277218
668.89,0.007906935
674.67,0.007485078
680.46,0.007208105
686.24,0.006832383
692.03,0.006794956
697.81,0.006516329
703.6,0.006376294
709.39,0.006453739
715.17,0.006310684
720.96,0.006115112
726.74,0.006153342
732.53,0.00624064
738.31,0.006597266
744.1,0.006886148
749.88,0.006872427
755.67,0.006516201
761.45,0.006079506
767.24,0.005496954
773.02,0.004671942
778.81,0.004192413
784.6,0.003391631
790.38,0.002761495
796.17,0.002352259
801.95,0.001911322
807.74,0.001862847
813.52,0.001931844
819.31,0.002385492
825.09,0.003344504
830.88,0.004568032
836.66,0.006529362
842.45,0.00857044
848.23,0.010898
854.02,0.0135509
859.81,0.0166077
865.59,0.0198077
871.38,0.0232853
877.16,0.0275922
882.95,0.03156198
888.73,0.0362183
894.52,0.040793
900.3,0.04583028
906.09,0.0501592
911.87,0.054403
917.66,0.0585712
923.45,0.0618227
929.23,0.065717
935.02,0.06809
940.8,0.0704698
946.59,0.0719553
952.37,0.0730677
958.16,0.0735458
963.94,0.0731263
969.73,0.0718459
975.51,0.0704091
981.3,0.0683664
987.08,0.0659419
992.87,0.0636413
998.66,0.0611574
1004.44,0.0596975
1010.23,0.058404
1016.01,0.05779095
1021.8,0.0577107
1027.58,0.0582768
1033.37,0.0589579
1039.15,0.0602258
1044.94,0.060884
1050.72,0.0614985
1056.51,0.0620808
1062.3,0.0615905
1068.08,0.0612039
1073.87,0.0599455
1079.65,0.0574492
1085.44,0.055406
1091.22,0.0522552
1097.01,0.0487562
1102.79,0.0453178
1108.58,0.0412594
1114.36,0.0375854
1120.15,0.034068
1125.93,0.03047971
1131.72,0.0269457
1137.51,0.0238329
1143.29,0.0208629
1149.08,0.0181451
1154.86,0.015284
1160.65,0.0127284
1166.43,0.0106842
1172.22,0.008549265
1178,0.006755648
1183.79,0.00527808
1189.57,0.003826819
1195.36,0.002808544
1201.14,0.00197474
1206.93,0.001239603
1212.72,0.000871849
1218.5,0.000388612
1224.29,0.000192884
1230.07,5.23176E-05
1235.86,0.000111445
1241.64,-7.38513E-07
1247.43,0.000103419
1253.21,0.000118228
1259,0.000220545
1264.78,0.000429564
1270.57,0.000410675
1276.35,0.000783323
1282.14,0.00079463
1287.93,0.001133953
1293.71,0.001542347
1299.5,0.002093923
1305.28,0.00241323
1311.07,0.002990621
1316.85,0.00362638
1322.64,0.004261738
1328.42,0.004720062
1334.21,0.005364587
1339.99,0.0059515
1345.78,0.006399596
1351.57,0.006913806
1357.35,0.007213161
1363.14,0.007799034
1368.92,0.008051112
1374.71,0.008211355
1380.49,0.008281906
1386.28,0.008225746
1392.06,0.00824428
1397.85,0.008109942
1403.63,0.007949385
1409.42,0.007815013
1415.2,0.007588872
1420.99,0.007507606
1426.78,0.007474539
1432.56,0.006996703
1438.35,0.006901252
1444.13,0.0068085
1449.92,0.006680729
1455.7,0.00653842
1461.49,0.006496507
1467.27,0.006205305
1473.06,0.005755642
1478.84,0.005439411
1484.63,0.004914978
1490.41,0.004305941
1496.2,0.003729872
1501.99,0.003222709
1507.77,0.00275005
1513.56,0.002294638
1519.34,0.001937641
1525.13,0.001617445
1530.91,0.001366447
1536.7,0.001140119
1542.48,0.000870149
1548.27,0.000726344
1554.05,0.001576702
1559.84,0.000955503
1565.62,0.000299876
1571.41,0.000182961
1577.2,0.000126283
1582.98,0.000135541
1588.77,0.00013532
1594.55,0.000245454
1599.37,0.000219249