Folder: MATLAB-Drive/PhD Work/Raman Plotter_050524/Plot Data/UG Glasses/SLS

File: JC_UG_SLS1_5th_cut_bas_ther_vect_050624.csv
RamanShift,SLS1
49.8496,-9.4362E-05
55.635,-1.96371E-05
61.4204,6.09096E-05
67.2058,5.87543E-05
72.9912,0.000159046
78.7766,0.000163853
84.562,0.000197041
90.3474,0.000242654
96.1328,0.000251669
101.918,0.000236033
107.704,0.000299776
113.489,0.000258809
119.274,0.000268306
125.06,0.000301666
130.845,0.00025086
136.631,0.000261699
142.416,0.000232364
148.201,0.000164433
153.987,0.000202854
159.772,0.000146503
165.558,0.000106744
171.343,0.000110909
177.128,6.72388E-05
182.914,6.19087E-05
188.699,3.49839E-05
194.485,2.40369E-05
200.27,2.31494E-05
206.055,8.77936E-05
211.841,0.000132868
217.626,0.000199545
223.412,0.000254206
229.197,0.000319283
234.982,0.000455435
240.768,0.000542613
246.553,0.000739811
252.339,0.000862082
258.124,0.0010541
263.909,0.001293451
269.695,0.001450041
275.48,0.001733141
281.266,0.001970191
287.051,0.002312309
292.836,0.002657846
298.622,0.003084249
304.407,0.003473955
310.193,0.003884762
315.978,0.004384933
321.763,0.004720095
327.549,0.00518088
333.334,0.005640344
339.12,0.006141571
344.905,0.006661464
350.69,0.007240596
356.476,0.007823916
362.261,0.008363138
368.047,0.008841922
373.832,0.009334158
379.617,0.00984682
385.403,0.0103033
391.188,0.0109808
396.974,0.01159846
402.759,0.0120946
408.544,0.0128845
414.33,0.0134135
420.115,0.0141445
425.901,0.0147321
431.686,0.015487
437.471,0.0162945
443.257,0.0168709
449.042,0.0177373
454.828,0.0183795
460.613,0.0186815
466.398,0.019315
472.184,0.0194298
477.969,0.0197517
483.755,0.0201695
489.54,0.0201576
495.325,0.0201406
501.111,0.02031869
506.896,0.0207872
512.682,0.0214809
518.467,0.0224734
524.252,0.0236146
530.038,0.0253553
535.823,0.0277898
541.609,0.0296125
547.394,0.0317358
553.179,0.032345
558.965,0.0330887
564.75,0.0324158
570.536,0.0316541
576.321,0.0306086
582.106,0.0292687
587.892,0.0282248
593.677,0.02709523
599.463,0.0257599
605.248,0.0240347
611.033,0.0222258
616.819,0.0206769
622.604,0.0192358
628.39,0.0178915
634.175,0.0168458
639.96,0.0158442
645.746,0.0147961
651.531,0.0139404
657.317,0.0128107
663.102,0.0118017
668.887,0.0107258
674.673,0.009601766
680.458,0.008451307
686.244,0.007362718
692.029,0.006369317
697.814,0.005290347
703.6,0.004236405
709.385,0.003622915
715.171,0.002997414
720.956,0.00254043
726.741,0.00226773
732.527,0.002044366
738.312,0.002053456
744.098,0.002433968
749.883,0.002818014
755.668,0.003435436
761.454,0.004147426
767.239,0.005055371
773.025,0.005767894
778.81,0.006451357
784.595,0.006780564
790.381,0.006952615
796.166,0.006800261
801.952,0.006333418
807.737,0.005799609
813.522,0.004816527
819.308,0.003825057
825.093,0.002736583
830.879,0.001488997
836.664,0.00068157
842.449,0.000224328
848.235,1.05455E-05
854.02,0.000228679
859.806,0.000802019
865.591,0.001560865
871.376,0.002557361
877.162,0.003894421
882.947,0.005307161
888.733,0.006989231
894.518,0.009025653
900.303,0.0115178
906.089,0.0138652
911.874,0.0167296
917.66,0.0199528
923.445,0.0230753
929.23,0.0268749
935.016,0.0300259
940.801,0.0330517
946.587,0.0355925
952.372,0.0373872
958.157,0.0385301
963.943,0.0393722
969.728,0.0395055
975.514,0.0401051
981.299,0.0405618
987.084,0.0410499
992.87,0.0418212
998.655,0.0425917
1004.44,0.043621
1010.23,0.0446797
1016.01,0.0463349
1021.8,0.0481237
1027.58,0.0503697
1033.37,0.0527259
1039.15,0.0558817
1044.94,0.0587329
1050.72,0.0622718
1056.51,0.0666113
1062.3,0.0708082
1068.08,0.07594489
1073.87,0.0808454
1079.65,0.0848486
1085.44,0.0893593
1091.22,0.0908319
1097.01,0.0901983
1102.79,0.08786678
1108.58,0.0826474
1114.36,0.0764401
1120.15,0.0703177
1125.93,0.0636567
1131.72,0.0569324
1137.51,0.0511359
1143.29,0.0458677
1149.08,0.041326
1154.86,0.0369649
1160.65,0.0327698
1166.43,0.0291572
1172.22,0.0255756
1178,0.022409
1183.79,0.0194714
1189.57,0.0166708
1195.36,0.0139338
1201.14,0.0116006
1206.93,0.009419474
1212.71,0.007715536
1218.5,0.005766633
1224.29,0.004379196
1230.07,0.003344573
1235.86,0.002350167
1241.64,0.001643785
1247.43,0.001132114
1253.21,0.000842566
1259,0.000517605
1264.78,0.000423546
1270.57,0.000334821
1276.35,0.000176914
1282.14,6.76011E-05
1287.92,5.19901E-05
1293.71,6.53469E-05
1299.5,0.00013606
1305.28,9.58233E-06
1311.07,-5.76198E-05
1316.85,0.000143514
1322.64,7.79911E-05
1328.42,0.000252792
1334.21,8.80591E-05
1339.99,0.000109052
1345.78,0.000265081
1351.57,0.000169872
1357.35,0.000144874
1363.13,0.000245955
1368.92,0.000201177
1374.71,0.000188103
1380.49,0.000366115
1386.28,0.000286364
1392.06,0.000359833
1397.85,0.000419254
1403.63,0.000359555
1409.42,0.000604121
1415.2,0.000544605
1420.99,0.000554108
1426.78,0.000627018
1432.56,0.000476373
1438.35,0.000672733
1444.13,0.000647185
1449.92,0.000542138
1455.7,0.000559614
1461.49,0.000763275
1467.27,0.000510665
1473.06,0.00059889
1478.84,0.000639075
1484.63,0.000731664
1490.41,0.000795815
1496.2,0.000807781
1501.98,0.000863506
1507.77,0.000958454
1513.56,0.000685893
1519.34,0.000795527
1525.13,0.000858463
1530.91,0.000630183
1536.7,0.000670918
1542.48,0.000600369
1548.27,0.000554112
1554.05,0.001344819
1559.84,0.000477428
1565.62,0.000234758
1571.41,0.000137839
1577.19,-0.000138108
1582.98,-0.000175282
1588.77,-0.000296156
1594.55,-0.000290087
1599.37,-0.000621858

File: JC_UG_SLS2_5th_cut_bas_ther_vect_050624.csv
RamanShift,SLS2
49.85,-0.000109631
55.64,-2.89357E-05
61.42,6.29389E-05
67.21,5.43959E-05
72.99,0.000166468
78.78,0.000169223
84.56,0.000201944
90.35,0.000248607
96.13,0.000261619
101.92,0.000238225
107.7,0.000304021
113.49,0.0002606
119.27,0.000279046
125.06,0.000298344
130.85,0.000245471
136.63,0.000254425
142.42,0.000229955
148.2,0.000152775
153.99,0.0001816
159.77,0.000129828
165.56,8.27225E-05
171.34,0.000105181
177.13,5.6711E-05
182.91,5.82624E-05
188.7,3.72365E-05
194.48,1.80501E-05
200.27,2.35662E-05
206.06,9.30877E-05
211.84,0.000139318
217.63,0.000201795
223.41,0.00025173
229.2,0.000299053
234.98,0.000415392
240.77,0.000517083
246.55,0.000701706
252.34,0.000836418
258.12,0.00100285
263.91,0.001245911
269.69,0.001387398
275.48,0.001646563
281.27,0.001877474
287.05,0.002206718
292.84,0.002558421
298.62,0.002975143
304.41,0.003359374
310.19,0.003784926
315.98,0.004244175
321.76,0.004617339
327.55,0.005084246
333.33,0.005583052
339.12,0.006112019
344.91,0.006677576
350.69,0.007284792
356.48,0.007890779
362.26,0.00846311
368.05,0.009001293
373.83,0.00952567
379.62,0.0100891
385.4,0.0105818
391.19,0.0113101
396.97,0.0119712
402.76,0.0125162
408.54,0.0133666
414.33,0.0139981
420.12,0.014738
425.9,0.0154055
431.69,0.0162006
437.47,0.0170468
443.26,0.0176711
449.04,0.0186358
454.83,0.0193728
460.61,0.0197775
466.4,0.0204936
472.18,0.0207436
477.97,0.0211103
483.75,0.0215526
489.54,0.0215628
495.33,0.0215561
501.11,0.0216419
506.9,0.0220166
512.68,0.0225718
518.47,0.0232794
524.25,0.0240278
530.04,0.0252224
535.82,0.0268767
541.61,0.0279667
547.39,0.0293582
553.18,0.0295534
558.96,0.0298992
564.75,0.0291998
570.54,0.0284334
576.32,0.02738177
582.11,0.0261078
587.89,0.0249098
593.68,0.0237063
599.46,0.022233
605.25,0.0205416
611.03,0.0188819
616.82,0.0173654
622.6,0.016047
628.39,0.0148047
634.18,0.01384842
639.96,0.0129283
645.75,0.0120402
651.53,0.0113042
657.32,0.0103795
663.1,0.009525971
668.89,0.008693599
674.67,0.007802243
680.46,0.006915709
686.24,0.006070908
692.03,0.005240643
697.81,0.004344007
703.6,0.003540377
709.39,0.003007697
715.17,0.002520237
720.96,0.002123188
726.74,0.001885256
732.53,0.001629783
738.31,0.001637326
744.1,0.001948157
749.88,0.002146163
755.67,0.002683426
761.45,0.003272413
767.24,0.003911146
773.02,0.004510937
778.81,0.004993692
784.6,0.005267889
790.38,0.005391772
796.17,0.005282259
801.95,0.004789211
807.74,0.004336912
813.52,0.003461098
819.31,0.002540307
825.09,0.001628667
830.88,0.000621367
836.66,0.000119776
842.45,1.88014E-05
848.23,0.000271938
854.02,0.00097847
859.81,0.002107294
865.59,0.003567316
871.38,0.005419681
877.16,0.007667477
882.95,0.0102801
888.73,0.0133661
894.52,0.0168514
900.3,0.0208094
906.09,0.0247802
911.87,0.0289766
917.66,0.0333762
923.45,0.0375164
929.23,0.0421121
935.02,0.0458222
940.8,0.0494485
946.59,0.0523784
952.37,0.054503
958.16,0.0561037
963.94,0.0571664
969.73,0.0572415
975.51,0.0575444
981.3,0.0573674
987.08,0.0569624
992.87,0.0564029
998.66,0.0557732
1004.44,0.0552925
1010.23,0.0548427
1016.01,0.054702
1021.8,0.0548428
1027.58,0.0554369
1033.37,0.0562954
1039.15,0.0580632
1044.94,0.059547
1050.72,0.0615779
1056.51,0.0644015
1062.3,0.0670261
1068.08,0.0702749
1073.87,0.0731049
1079.65,0.0749873
1085.44,0.0772213
1091.22,0.0772194
1097.01,0.0757863
1102.79,0.0731484
1108.58,0.0687056
1114.36,0.06331376
1120.15,0.0581986
1125.93,0.0527022
1131.72,0.0472517
1137.51,0.0425782
1143.29,0.0380437
1149.08,0.034096
1154.86,0.0305196
1160.65,0.026936
1166.43,0.02385689
1172.22,0.0207897
1178,0.01821551
1183.79,0.0156928
1189.57,0.01333045
1195.36,0.0110443
1201.14,0.009089825
1206.93,0.007322284
1212.72,0.005859045
1218.5,0.004345055
1224.29,0.003215443
1230.07,0.00241359
1235.86,0.001685193
1241.64,0.001213626
1247.43,0.000829899
1253.21,0.000682375
1259,0.000373532
1264.78,0.000333083
1270.57,0.000273518
1276.35,0.000124369
1282.14,8.94574E-05
1287.93,0.000115961
1293.71,0.000143362
1299.5,0.000106097
1305.28,2.96465E-05
1311.07,7.85523E-05
1316.85,0.000152179
1322.64,0.000163718
1328.42,0.000267263
1334.21,9.17941E-05
1339.99,0.000143552
1345.78,0.000296082
1351.57,0.000124349
1357.35,0.000132084
1363.14,0.000189739
1368.92,0.000221534
1374.71,0.000166861
1380.49,0.000258412
1386.28,0.000195657
1392.06,0.00029155
1397.85,0.000292781
1403.63,0.000227206
1409.42,0.000319043
1415.2,0.000388389
1420.99,0.000390343
1426.78,0.000423966
1432.56,0.000259444
1438.35,0.00048033
1444.13,0.000401571
1449.92,0.000384575
1455.7,0.000370093
1461.49,0.000564067
1467.27,0.000367343
1473.06,0.00037563
1478.84,0.000387046
1484.63,0.000409002
1490.41,0.000563855
1496.2,0.000565379
1501.99,0.000518505
1507.77,0.000590181
1513.56,0.000425309
1519.34,0.00053214
1525.13,0.000574489
1530.91,0.000275356
1536.7,0.000344518
1542.48,0.000352687
1548.27,0.000306681
1554.05,0.001223512
1559.84,0.00048009
1565.62,9.84161E-05
1571.41,-7.55029E-07
1577.2,-0.0001686
1582.98,-9.92008E-05
1588.77,-0.000260207
1594.55,-0.000250144
1599.37,-0.000469611

File: JC_UG_SLS3_5th_cut_bas_ther_vect_050624.csv
RamanShift,SLS3
49.85,-3.41493E-05
55.64,7.23237E-05
61.42,0.0002297
67.21,0.000182334
72.99,0.000363155
78.78,0.000346916
84.56,0.000401769
90.35,0.000458165
96.13,0.00047056
101.92,0.000412066
107.7,0.00054193
113.49,0.000429785
119.27,0.000462912
125.06,0.000482368
130.85,0.000395091
136.63,0.000403896
142.42,0.000364283
148.2,0.000253267
153.99,0.00029752
159.77,0.000201843
165.56,0.000145266
171.34,0.000168416
177.13,9.58299E-05
182.91,8.74578E-05
188.7,6.73821E-05
194.48,4.28567E-05
200.27,2.23707E-05
206.06,8.55138E-05
211.84,0.000108154
217.63,0.000169181
223.41,0.000210943
229.2,0.000249364
234.98,0.00035793
240.77,0.000389857
246.55,0.000570983
252.34,0.000690733
258.12,0.000855043
263.91,0.001054205
269.69,0.00116704
275.48,0.001410383
281.27,0.001580701
287.05,0.001907957
292.84,0.002235814
298.62,0.002648817
304.41,0.00300538
310.19,0.003415036
315.98,0.003870056
321.76,0.004206497
327.55,0.004656608
333.33,0.005164759
339.12,0.005664864
344.91,0.006266163
350.69,0.006896412
356.48,0.007519738
362.26,0.008101016
368.05,0.008639703
373.83,0.009183791
379.62,0.009763527
385.4,0.0102649
391.19,0.0109695
396.97,0.011732
402.76,0.0122894
408.54,0.0131291
414.33,0.01382322
420.12,0.0146271
425.9,0.0153082
431.69,0.0160997
437.47,0.0169994
443.26,0.0176018
449.04,0.0186211
454.83,0.0194183
460.61,0.0198413
466.4,0.020632
472.18,0.0208532
477.97,0.0212618
483.75,0.0216948
489.54,0.0215847
495.33,0.0214642
501.11,0.0214548
506.9,0.0216887
512.68,0.0221153
518.47,0.0226325
524.25,0.0231486
530.04,0.0239609
535.82,0.0253419
541.61,0.02605093
547.39,0.0269611
553.18,0.0266002
558.96,0.0266003
564.75,0.0254174
570.54,0.0244483
576.32,0.0231837
582.11,0.0217568
587.89,0.0204685
593.68,0.019185
599.46,0.0176567
605.25,0.0159378
611.03,0.0143469
616.82,0.0128845
622.6,0.0116527
628.39,0.0104598
634.18,0.009637708
639.96,0.00881931
645.75,0.008067753
651.53,0.007529648
657.32,0.00683061
663.1,0.006179015
668.89,0.00557006
674.67,0.004833171
680.46,0.004087488
686.24,0.00354881
692.03,0.002906174
697.81,0.002164178
703.6,0.001473735
709.39,0.001155027
715.17,0.000809792
720.96,0.000579992
726.74,0.000394692
732.53,0.000225769
738.31,0.000299611
744.1,0.00067301
749.88,0.000810983
755.67,0.00136761
761.45,0.001925011
767.24,0.002602942
773.02,0.00324019
778.81,0.003733554
784.6,0.004134452
790.38,0.004268118
796.17,0.004327624
801.95,0.003963494
807.74,0.003624456
813.52,0.002850081
819.31,0.002078758
825.09,0.001323271
830.88,0.000429893
836.66,5.10784E-05
842.45,0.000149358
848.23,0.00051357
854.02,0.001382539
859.81,0.002867737
865.59,0.004535697
871.38,0.006672142
877.16,0.009291105
882.95,0.0124178
888.73,0.0160461
894.52,0.0201358
900.3,0.0247973
906.09,0.0293648
911.87,0.0343336
917.66,0.0394018
923.45,0.0440396
929.23,0.0493386
935.02,0.0535063
940.8,0.057675
946.59,0.0611682
952.37,0.0639304
958.16,0.0659188
963.94,0.0673912
969.73,0.0675818
975.51,0.067753
981.3,0.0669494
987.08,0.0658528
992.87,0.0644041
998.66,0.0627966
1004.44,0.0612357
1010.23,0.0596233
1016.01,0.05843319
1021.8,0.0575487
1027.58,0.0572645
1033.37,0.05717953
1039.15,0.058125
1044.94,0.0586548
1050.72,0.0598644
1056.51,0.0616376
1062.3,0.0631682
1068.08,0.0653371
1073.87,0.0669561
1079.65,0.0679192
1085.44,0.069032
1091.22,0.068476
1097.01,0.0666176
1102.79,0.0641366
1108.58,0.0600693
1114.36,0.0553205
1120.15,0.0512032
1125.93,0.04653
1131.72,0.0419177
1137.51,0.0379017
1143.29,0.0339749
1149.08,0.0306733
1154.86,0.0275927
1160.65,0.0244404
1166.43,0.0216847
1172.22,0.01898347
1178,0.0168381
1183.79,0.0146529
1189.57,0.0124417
1195.36,0.0103
1201.14,0.008435332
1206.93,0.006863587
1212.72,0.005549556
1218.5,0.004093277
1224.29,0.003018503
1230.07,0.002326929
1235.86,0.001514494
1241.64,0.001072343
1247.43,0.000643005
1253.21,0.000630369
1259,0.000282953
1264.78,0.000320543
1270.57,0.000306524
1276.35,0.000125412
1282.14,0.000256085
1287.93,0.000197272
1293.71,0.000250123
1299.5,0.00028858
1305.28,0.000177847
1311.07,0.000287523
1316.85,0.000468374
1322.64,0.000396758
1328.42,0.000704871
1334.21,0.000390055
1339.99,0.000543737
1345.78,0.000806566
1351.57,0.000558575
1357.35,0.000575827
1363.14,0.00066714
1368.92,0.000726452
1374.71,0.000651292
1380.49,0.000819609
1386.28,0.000744117
1392.06,0.000890599
1397.85,0.000894737
1403.63,0.000772811
1409.42,0.000876263
1415.2,0.001003212
1420.99,0.000928305
1426.78,0.000963562
1432.56,0.000756025
1438.35,0.001021757
1444.13,0.000929436
1449.92,0.001039983
1455.7,0.000910128
1461.49,0.001180415
1467.27,0.000777676
1473.06,0.000849012
1478.84,0.000939309
1484.63,0.000955676
1490.41,0.001171258
1496.2,0.001098612
1501.99,0.000963026
1507.77,0.001198238
1513.56,0.000895443
1519.34,0.001137296
1525.13,0.001097809
1530.91,0.000710557
1536.7,0.000799058
1542.48,0.000845865
1548.27,0.000822019
1554.05,0.002523574
1559.84,0.001341038
1565.62,0.000432087
1571.41,0.000361053
1577.2,0.000108739
1582.98,0.000325583
1588.77,7.06627E-05
1594.55,0.000113978
1599.37,-0.000130222

File: JC_UG_SLS4_5th_cut_bas_ther_vect_050624.csv
RamanShift,SLS4
49.85,1.58261E-05
55.64,0.000128844
61.42,0.000287951
67.21,0.00024018
72.99,0.000443658
78.78,0.000404239
84.56,0.000464074
90.35,0.000522758
96.13,0.000529604
101.92,0.000464322
107.7,0.000601931
113.49,0.000456236
119.27,0.000495879
125.06,0.000517982
130.85,0.000405415
136.63,0.000403514
142.42,0.000360149
148.2,0.000256104
153.99,0.000302417
159.77,0.000196893
165.56,0.000148418
171.34,0.000171797
177.13,9.70514E-05
182.91,7.95757E-05
188.7,7.15599E-05
194.48,2.21792E-05
200.27,2.3325E-05
206.06,6.21179E-05
211.84,9.12881E-05
217.63,0.000125199
223.41,0.000213924
229.2,0.000199017
234.98,0.000250967
240.77,0.000333027
246.55,0.000482418
252.34,0.000569039
258.12,0.000656893
263.91,0.000824735
269.69,0.000923374
275.48,0.001096804
281.27,0.001303778
287.05,0.001531005
292.84,0.001823025
298.62,0.002142703
304.41,0.002443277
310.19,0.002804222
315.98,0.003179872
321.76,0.003445816
327.55,0.003900912
333.33,0.00429049
339.12,0.004832025
344.91,0.005383734
350.69,0.005884124
356.48,0.006470167
362.26,0.007006408
368.05,0.007538834
373.83,0.008084487
379.62,0.008592475
385.4,0.009119561
391.19,0.009776472
396.97,0.0104223
402.76,0.0109852
408.54,0.0120112
414.33,0.0124187
420.12,0.0132395
425.9,0.01385361
431.69,0.0146601
437.47,0.0153203
443.26,0.0160511
449.04,0.0170544
454.83,0.0178262
460.61,0.0182522
466.4,0.0189992
472.18,0.019321
477.97,0.0197379
483.75,0.0200829
489.54,0.0199698
495.33,0.0198657
501.11,0.0199179
506.9,0.020106
512.68,0.02038763
518.47,0.0207765
524.25,0.02116
530.04,0.0217641
535.82,0.0230262
541.61,0.0233935
547.39,0.0240848
553.18,0.023542
558.96,0.0233259
564.75,0.022038
570.54,0.0209352
576.32,0.01964973
582.11,0.0181717
587.89,0.0168655
593.68,0.0154759
599.46,0.0139158
605.25,0.0124645
611.03,0.0109716
616.82,0.009557512
622.6,0.008285575
628.39,0.007249947
634.18,0.00634383
639.96,0.005754479
645.75,0.005091964
651.53,0.004777831
657.32,0.004147079
663.1,0.003742632
668.89,0.003318047
674.67,0.002797997
680.46,0.002470352
686.24,0.002109155
692.03,0.001571432
697.81,0.001098616
703.6,0.000642662
709.39,0.000520287
715.17,0.000284342
720.96,6.50076E-05
726.74,0.000260989
732.53,0.000197116
738.31,0.000321851
744.1,0.000542562
749.88,0.000971414
755.67,0.001279191
761.45,0.001835377
767.24,0.002361695
773.02,0.002867489
778.81,0.003283856
784.6,0.003520953
790.38,0.003796519
796.17,0.003849673
801.95,0.003565882
807.74,0.003409735
813.52,0.002675385
819.31,0.00199804
825.09,0.001541391
830.88,0.001023579
836.66,0.001291402
842.45,0.001585167
848.23,0.002428681
854.02,0.004025601
859.81,0.005788993
865.59,0.008082958
871.38,0.0108626
877.16,0.0144056
882.95,0.0181125
888.73,0.0224388
894.52,0.0272582
900.3,0.0329117
906.09,0.0384163
911.87,0.0437955
917.66,0.04916547
923.45,0.0543099
929.23,0.0595295
935.02,0.06377493
940.8,0.0677018
946.59,0.0706022
952.37,0.0733732
958.16,0.07490511
963.94,0.07602535
969.73,0.0755963
975.51,0.0752146
981.3,0.0736887
987.08,0.0717939
992.87,0.0696264
998.66,0.0670483
1004.44,0.0646964
1010.23,0.0624349
1016.01,0.06037923
1021.8,0.0588855
1027.58,0.0581018
1033.37,0.0575996
1039.15,0.0575689
1044.94,0.0574661
1050.72,0.0577219
1056.51,0.0584565
1062.3,0.0586815
1068.08,0.059582
1073.87,0.0602536
1079.65,0.0594988
1085.44,0.0596172
1091.22,0.0578432
1097.01,0.0557975
1102.79,0.053223
1108.58,0.049411
1114.36,0.0453058
1120.15,0.0421294
1125.93,0.03830045
1131.72,0.0341875
1137.51,0.0310524
1143.29,0.02784308
1149.08,0.0249231
1154.86,0.0221974
1160.65,0.0194336
1166.43,0.01757518
1172.22,0.015191
1178,0.0128518
1183.79,0.01096145
1189.57,0.009375091
1195.36,0.007920401
1201.14,0.006227153
1206.93,0.004978513
1212.72,0.003893774
1218.5,0.002596594
1224.29,0.001783264
1230.07,0.001270532
1235.86,0.000690758
1241.64,0.000606102
1247.43,0.000263265
1253.21,0.000155602
1259,0.000129238
1264.78,0.000245086
1270.57,4.52231E-05
1276.35,0.000168374
1282.14,0.000242261
1287.93,0.000442626
1293.71,0.000635
1299.5,0.001032526
1305.28,0.001203105
1311.07,0.001316772
1316.85,0.001526342
1322.64,0.001707018
1328.42,0.001299281
1334.21,0.001296511
1339.99,0.000990034
1345.78,0.000842642
1351.57,0.000734082
1357.35,0.000694208
1363.14,0.000695029
1368.92,0.000288264
1374.71,0.000555294
1380.49,0.000696178
1386.28,0.000439395
1392.06,0.000478354
1397.85,0.000363973
1403.63,0.000375382
1409.42,0.000461147
1415.2,0.000561068
1420.99,0.000365984
1426.78,0.00044669
1432.56,0.000745263
1438.35,0.000502655
1444.13,0.000500637
1449.92,0.000472936
1455.7,0.000523173
1461.49,0.000652582
1467.27,0.000596161
1473.06,0.00056195
1478.84,0.000632115
1484.63,0.000849286
1490.41,0.000597523
1496.2,0.000731478
1501.99,0.000690754
1507.77,0.000925085
1513.56,0.000781955
1519.34,0.000695807
1525.13,0.000590912
1530.91,0.000706667
1536.7,0.000341622
1542.48,0.000447567
1548.27,0.000805923
1554.05,0.002983026
1559.84,0.001488967
1565.62,0.000164751
1571.41,8.52227E-05
1577.2,0.00014744
1582.98,0.000317935
1588.77,-3.14404E-05
1594.55,-9.45915E-05
1599.37,-3.99746E-05