Folder: MATLAB-Drive/PhD Work/XRD Plotter_240524

File: ALMW5_raw_240524.csv
10.0116,7471
10.3137,7425
10.6157,7356
10.9178,7239
11.2199,7440
11.522,7127
11.8241,7349
12.1262,7293
12.4283,7048
12.7304,7251
13.0325,6930
13.3346,6822
13.6367,6890
13.9387,6924
14.2408,6778
14.5429,6901
14.845,6834
15.1471,6808
15.4492,6895
15.7513,6871
16.0534,7097
16.3555,7040
16.6576,7285
16.9597,7094
17.2617,7191
17.5638,7438
17.8659,7649
18.168,7624
18.4701,7968
18.7722,7755
19.0743,8058
19.3764,8005
19.6785,8299
19.9806,8449
20.2826,8529
20.5847,8603
20.8868,8922
21.1889,8996
21.491,8858
21.7931,9159
22.0952,9076
22.3973,9183
22.6994,9168
23.0015,9152
23.3036,9311
23.6056,9175
23.9077,9184
24.2098,9360
24.5119,9178
24.814,9378
25.1161,9460
25.4182,9214
25.7203,9194
26.0224,9118
26.3245,9136
26.6266,9197
26.9286,8876
27.2307,8655
27.5328,8719
27.8349,8602
28.137,8399
28.4391,8089
28.7412,8084
29.0433,8076
29.3454,7968
29.6475,7760
29.9495,7464
30.2516,7307
30.5537,7207
30.8558,7053
31.1579,6998
31.46,6857
31.7621,6657
32.0642,6601
32.3663,6564
32.6684,6359
32.9705,6215
33.2725,6030
33.5746,6007
33.8767,5707
34.1788,5764
34.4809,5595
34.783,5507
35.0851,5374
35.3872,5346
35.6893,5346
35.9914,5188
36.2935,5081
36.5955,5150
36.8976,4981
37.1997,4917
37.5018,4825
37.8039,4760
38.106,4706
38.4081,4539
38.7102,4517
39.0123,4490
39.3144,4413
39.6165,4285
39.9185,4394
40.2206,4228
40.5227,4193
40.8248,4281
41.1269,4068
41.429,4262
41.7311,4205
42.0332,4112
42.3353,4091
42.6374,4160
42.9394,4091
43.2415,4138
43.5436,4135
43.8457,4165
44.1478,4192
44.4499,4190
44.752,3983
45.0541,4080
45.3562,3944
45.6583,4068
45.9604,3915
46.2624,3926
46.5645,4062
46.8666,3904
47.1687,3840
47.4708,3797
47.7729,3890
48.075,3740
48.3771,3788
48.6792,3732
48.9813,3719
49.2834,3700
49.5854,3613
49.8875,3897
50.1896,3742
50.4917,3618
50.7938,3474
51.0959,3511
51.398,3479
51.7001,3323
52.0022,3424
52.3043,3289
52.6064,3297
52.9084,3154
53.2105,3255
53.5126,3223
53.8147,3039
54.1168,3182
54.4189,3092
54.721,3043
55.0231,3018
55.3252,3036
55.6273,2878
55.9293,3039
56.2314,2952
56.5335,2891
56.8356,3083
57.1377,2893
57.4398,2829
57.7419,2854
58.044,2923
58.3461,2813
58.6482,2863
58.9503,2884
59.2523,2730
59.5544,2759
59.8565,2943
60.1586,2928
60.4607,2807
60.7628,2778
61.0649,2829
61.367,2862
61.6691,2861
61.9712,2724
62.2733,2773
62.5753,2776
62.8774,2651
63.1795,2702
63.4816,2761
63.7837,2687
64.0858,2768
64.3879,2660
64.69,2786
64.9921,2693
65.2942,2659
65.5962,2635
65.8983,2737
66.2004,2764
66.5025,2640
66.8046,2699
67.1067,2639
67.4088,2702
67.7109,2621
68.013,2589
68.3151,2566
68.6172,2567
68.9192,2563
69.2213,2631
69.5234,2623
69.8255,2422
70.1276,2591
70.4297,2551
70.7318,2511
71.0339,2394
71.336,2504
71.6381,2568
71.9402,2456
72.2422,2482
72.5443,2497
72.8464,2501
73.1485,2378
73.4506,2406
73.7527,2371
74.0548,2402
74.3569,2383
74.659,2377
74.9611,2345
75.2632,2395
75.5652,2356
75.8673,2299
76.1694,2297
76.4715,2263
76.7736,2276
77.0757,2321
77.3778,2160
77.6799,2281
77.982,2232
78.2841,2203
78.5861,2181
78.8882,2123
79.1903,2133
79.4924,2191
79.7945,2177
80.0966,2112
80.3987,2213
80.7008,2095
81.0029,2139
81.305,2033
81.6071,2007
81.9091,1964
82.2112,2007
82.5133,2044
82.8154,1975
83.1175,2024
83.4196,2020
83.7217,2083
84.0238,1926
84.3259,1936
84.628,2001
84.9301,1888
85.2321,1996
85.5342,1961
85.8363,1855
86.1384,1847
86.4405,1863
86.7426,1862
87.0447,1787
87.3468,1766
87.6489,1873
87.951,1751
88.2531,1723
88.5551,1765
88.8572,1794
89.1593,1687
89.4614,1644
89.7635,1633
90.0656,1658
90.3677,1744
90.6698,1735
90.9719,1664
91.274,1710
91.576,1593
91.8781,1691
92.1802,1573
92.4823,1576
92.7844,1619
93.0865,1619
93.3886,1635
93.6907,1614
93.9928,1575
94.2949,1545
94.597,1582
94.899,1540
95.2011,1504
95.5032,1570
95.8053,1455
96.1074,1542
96.4095,1531
96.7116,1521
97.0137,1511
97.3158,1520
97.6179,1540
97.92,1494
98.222,1449
98.5241,1494
98.8262,1532
99.1283,1515
99.4304,1479
99.7325,1491
99.9934,14

File: ALMW25_raw_280524.csv
10.0116,7200
10.3137,7271
10.6157,7318
10.9178,7270
11.2199,6958
11.522,7287
11.8241,7247
12.1262,7054
12.4283,6903
12.7304,6943
13.0325,7062
13.3346,6989
13.6367,7006
13.9387,6958
14.2408,6878
14.5429,6958
14.845,6955
15.1471,7003
15.4492,6957
15.7513,7022
16.0534,7034
16.3555,7198
16.6576,7277
16.9597,7181
17.2617,7544
17.5638,7534
17.8659,7664
18.168,7608
18.4701,7657
18.7722,8066
19.0743,8059
19.3764,8220
19.6785,8283
19.9806,8424
20.2826,8740
20.5847,8610
20.8868,8898
21.1889,8878
21.491,8971
21.7931,8943
22.0952,8912
22.3973,9207
22.6994,9270
23.0015,9120
23.3036,9426
23.6056,9130
23.9077,9438
24.2098,9299
24.5119,9477
24.814,9155
25.1161,9332
25.4182,9261
25.7203,9262
26.0224,9006
26.3245,9023
26.6266,8907
26.9286,8917
27.2307,8870
27.5328,8537
27.8349,8579
28.137,8388
28.4391,8324
28.7412,8065
29.0433,8029
29.3454,7932
29.6475,7676
29.9495,7622
30.2516,7572
30.5537,7290
30.8558,7172
31.1579,7123
31.46,6904
31.7621,6898
32.0642,6722
32.3663,6489
32.6684,6458
32.9705,6166
33.2725,6237
33.5746,5944
33.8767,5940
34.1788,5724
34.4809,5644
34.783,5597
35.0851,5627
35.3872,5536
35.6893,5212
35.9914,5280
36.2935,5078
36.5955,5129
36.8976,5279
37.1997,4830
37.5018,4805
37.8039,4721
38.106,4640
38.4081,4724
38.7102,4429
39.0123,4562
39.3144,4332
39.6165,4277
39.9185,4418
40.2206,4414
40.5227,4274
40.8248,4085
41.1269,4225
41.429,4122
41.7311,4156
42.0332,4166
42.3353,4194
42.6374,4203
42.9394,4214
43.2415,4058
43.5436,4090
43.8457,4321
44.1478,4133
44.4499,4002
44.752,4243
45.0541,4090
45.3562,4024
45.6583,4070
45.9604,3921
46.2624,4147
46.5645,4088
46.8666,3912
47.1687,3884
47.4708,3848
47.7729,3806
48.075,3825
48.3771,3780
48.6792,3697
48.9813,3749
49.2834,3654
49.5854,3743
49.8875,3702
50.1896,3736
50.4917,3599
50.7938,3576
51.0959,3387
51.398,3424
51.7001,3309
52.0022,3347
52.3043,3451
52.6064,3185
52.9084,3206
53.2105,3269
53.5126,3123
53.8147,3160
54.1168,3138
54.4189,3166
54.721,3155
55.0231,3099
55.3252,3017
55.6273,2964
55.9293,2988
56.2314,2983
56.5335,3058
56.8356,2942
57.1377,2922
57.4398,2868
57.7419,2947
58.044,2845
58.3461,2899
58.6482,2798
58.9503,2894
59.2523,2814
59.5544,2748
59.8565,2818
60.1586,2743
60.4607,2764
60.7628,2816
61.0649,2763
61.367,2760
61.6691,2759
61.9712,2710
62.2733,2606
62.5753,2782
62.8774,2744
63.1795,2690
63.4816,2765
63.7837,2565
64.0858,2633
64.3879,2695
64.69,2639
64.9921,2725
65.2942,2680
65.5962,2722
65.8983,2653
66.2004,2647
66.5025,2639
66.8046,2676
67.1067,2635
67.4088,2717
67.7109,2611
68.013,2606
68.3151,2596
68.6172,2597
68.9192,2502
69.2213,2543
69.5234,2590
69.8255,2393
70.1276,2546
70.4297,2394
70.7318,2468
71.0339,2464
71.336,2488
71.6381,2504
71.9402,2477
72.2422,2420
72.5443,2377
72.8464,2396
73.1485,2379
73.4506,2296
73.7527,2436
74.0548,2419
74.3569,2306
74.659,2354
74.9611,2257
75.2632,2311
75.5652,2356
75.8673,2355
76.1694,2392
76.4715,2342
76.7736,2283
77.0757,2285
77.3778,2184
77.6799,2202
77.982,2253
78.2841,2190
78.5861,2258
78.8882,2184
79.1903,2129
79.4924,2180
79.7945,2187
80.0966,2104
80.3987,2140
80.7008,2047
81.0029,2112
81.305,2010
81.6071,2093
81.9091,2124
82.2112,2077
82.5133,2013
82.8154,2055
83.1175,2052
83.4196,1998
83.7217,1885
84.0238,1949
84.3259,2014
84.628,1834
84.9301,1977
85.2321,1855
85.5342,1918
85.8363,1831
86.1384,1912
86.4405,2003
86.7426,1822
87.0447,1874
87.3468,1860
87.6489,1863
87.951,1878
88.2531,1760
88.5551,1841
88.8572,1799
89.1593,1829
89.4614,1761
89.7635,1915
90.0656,1707
90.3677,1656
90.6698,1710
90.9719,1688
91.274,1724
91.576,1684
91.8781,1670
92.1802,1704
92.4823,1598
92.7844,1612
93.0865,1690
93.3886,1652
93.6907,1655
93.9928,1581
94.2949,1636
94.597,1638
94.899,1596
95.2011,1500
95.5032,1485
95.8053,1484
96.1074,1590
96.4095,1543
96.7116,1529
97.0137,1498
97.3158,1544
97.6179,1546
97.92,1354
98.222,1551
98.5241,1438
98.8262,1579
99.1283,1556
99.4304,1513
99.7325,1512
99.9934,14

File: MW0_raw_280524.csv
10.0116,7273
10.3137,7539
10.6157,7371
10.9178,7213
11.2199,7117
11.522,7257
11.8241,7108
12.1262,7189
12.4283,7215
12.7304,7046
13.0325,7029
13.3346,6901
13.6367,6972
13.9387,6913
14.2408,6838
14.5429,7021
14.845,6790
15.1471,6759
15.4492,6953
15.7513,6990
16.0534,7151
16.3555,7105
16.6576,7336
16.9597,7349
17.2617,7367
17.5638,7610
17.8659,7564
18.168,7727
18.4701,7898
18.7722,7809
19.0743,8072
19.3764,8181
19.6785,8282
19.9806,8497
20.2826,8698
20.5847,8576
20.8868,8517
21.1889,8983
21.491,8846
21.7931,8907
22.0952,8779
22.3973,9096
22.6994,9197
23.0015,9145
23.3036,9259
23.6056,9126
23.9077,9161
24.2098,9159
24.5119,9200
24.814,9360
25.1161,9264
25.4182,9331
25.7203,9420
26.0224,9116
26.3245,9136
26.6266,9109
26.9286,8823
27.2307,8918
27.5328,8884
27.8349,8526
28.137,8415
28.4391,8299
28.7412,8101
29.0433,8037
29.3454,7800
29.6475,7832
29.9495,7623
30.2516,7376
30.5537,7343
30.8558,7171
31.1579,6968
31.46,6935
31.7621,6744
32.0642,6628
32.3663,6671
32.6684,6402
32.9705,6323
33.2725,6130
33.5746,6069
33.8767,5940
34.1788,5800
34.4809,5703
34.783,5642
35.0851,5446
35.3872,5200
35.6893,5304
35.9914,5249
36.2935,5326
36.5955,4981
36.8976,5070
37.1997,5038
37.5018,4843
37.8039,4823
38.106,4750
38.4081,4558
38.7102,4631
39.0123,4434
39.3144,4333
39.6165,4244
39.9185,4307
40.2206,4246
40.5227,4162
40.8248,4095
41.1269,4259
41.429,4109
41.7311,4147
42.0332,4134
42.3353,4255
42.6374,4050
42.9394,4242
43.2415,4151
43.5436,4132
43.8457,4148
44.1478,4046
44.4499,4061
44.752,4071
45.0541,4200
45.3562,4196
45.6583,3950
45.9604,4080
46.2624,4095
46.5645,4037
46.8666,4010
47.1687,3996
47.4708,3942
47.7729,3915
48.075,3833
48.3771,3803
48.6792,3814
48.9813,3877
49.2834,3616
49.5854,3656
49.8875,3865
50.1896,3851
50.4917,3634
50.7938,3514
51.0959,3510
51.398,3334
51.7001,3206
52.0022,3356
52.3043,3348
52.6064,3233
52.9084,3245
53.2105,3170
53.5126,3219
53.8147,3080
54.1168,3078
54.4189,3134
54.721,3068
55.0231,3073
55.3252,2948
55.6273,2929
55.9293,3004
56.2314,2927
56.5335,2800
56.8356,2970
57.1377,2924
57.4398,2956
57.7419,2820
58.044,2851
58.3461,2980
58.6482,2774
58.9503,2903
59.2523,2869
59.5544,2736
59.8565,2803
60.1586,2936
60.4607,2794
60.7628,2748
61.0649,2745
61.367,2688
61.6691,2735
61.9712,2821
62.2733,2666
62.5753,2702
62.8774,2726
63.1795,2780
63.4816,2672
63.7837,2665
64.0858,2677
64.3879,2665
64.69,2756
64.9921,2695
65.2942,2689
65.5962,2601
65.8983,2633
66.2004,2654
66.5025,2748
66.8046,2522
67.1067,2724
67.4088,2565
67.7109,2641
68.013,2620
68.3151,2601
68.6172,2605
68.9192,2520
69.2213,2510
69.5234,2529
69.8255,2504
70.1276,2568
70.4297,2522
70.7318,2537
71.0339,2533
71.336,2495
71.6381,2434
71.9402,2452
72.2422,2444
72.5443,2359
72.8464,2513
73.1485,2433
73.4506,2372
73.7527,2397
74.0548,2323
74.3569,2354
74.659,2409
74.9611,2427
75.2632,2333
75.5652,2328
75.8673,2333
76.1694,2355
76.4715,2274
76.7736,2240
77.0757,2241
77.3778,2284
77.6799,2195
77.982,2259
78.2841,2190
78.5861,2215
78.8882,2216
79.1903,2190
79.4924,2181
79.7945,2215
80.0966,2288
80.3987,2157
80.7008,2053
81.0029,2071
81.305,2048
81.6071,2087
81.9091,2046
82.2112,2122
82.5133,2107
82.8154,2021
83.1175,2006
83.4196,2086
83.7217,2099
84.0238,1942
84.3259,1996
84.628,1934
84.9301,1960
85.2321,1966
85.5342,1922
85.8363,1965
86.1384,1921
86.4405,1968
86.7426,1952
87.0447,1791
87.3468,1906
87.6489,1876
87.951,1909
88.2531,1784
88.5551,1807
88.8572,1777
89.1593,1798
89.4614,1742
89.7635,1774
90.0656,1764
90.3677,1808
90.6698,1792
90.9719,1717
91.274,1785
91.576,1663
91.8781,1641
92.1802,1753
92.4823,1625
92.7844,1630
93.0865,1624
93.3886,1691
93.6907,1595
93.9928,1649
94.2949,1645
94.597,1640
94.899,1649
95.2011,1585
95.5032,1560
95.8053,1603
96.1074,1555
96.4095,1552
96.7116,1535
97.0137,1605
97.3158,1502
97.6179,1578
97.92,1462
98.222,1548
98.5241,1599
98.8262,1537
99.1283,1520
99.4304,1495
99.7325,1471
99.9934,14