Folder: MATLAB-Drive/Year 3/AIT

File: SAMPLE1_XRD.csv
20.0065 64.0
20.1772 60.0
20.3479 56.0
20.5185 73.0
20.6892 65.0
20.8599 62.0
21.0306 64.0
21.2013 50.0
21.372 47.0
21.5427 60.0
21.7134 55.0
21.8841 53.0
22.0548 56.0
22.2255 55.0
22.3962 50.0
22.5669 64.0
22.7376 57.0
22.9083 48.0
23.079 56.0
23.2496 40.0
23.4203 60.0
23.591 44.0
23.7617 52.0
23.9324 59.0
24.1031 60.0
24.2738 52.0
24.4445 54.0
24.6152 60.0
24.7859 64.0
24.9566 59.0
25.1273 46.0
25.298 61.0
25.4687 67.0
25.6394 122.0
25.8101 171.0
25.9807 98.0
26.1514 59.0
26.3221 46.0
26.4928 50.0
26.6635 57.0
26.8342 50.0
27.0049 47.0
27.1756 51.0
27.3463 40.0
27.517 56.0
27.6877 55.0
27.8584 46.0
28.0291 41.0
28.1998 58.0
28.3705 65.0
28.5411 53.0
28.7118 49.0
28.8825 42.0
29.0532 41.0
29.2239 41.0
29.3946 29.0
29.5653 34.0
29.736 52.0
29.9067 34.0
30.0774 62.0
30.2481 47.0
30.4188 41.0
30.5895 42.0
30.7602 32.0
30.9309 30.0
31.1016 32.0
31.2722 32.0
31.4429 42.0
31.6136 35.0
31.7843 37.0
31.955 44.0
32.1257 45.0
32.2964 47.0
32.4671 46.0
32.6378 41.0
32.8085 34.0
32.9792 37.0
33.1499 40.0
33.3206 54.0
33.4913 37.0
33.662 36.0
33.8327 44.0
34.0033 36.0
34.174 33.0
34.3447 35.0
34.5154 51.0
34.6861 43.0
34.8568 45.0
35.0275 43.0
35.1982 34.0
35.3689 52.0
35.5396 35.0
35.7103 48.0
35.881 34.0
36.0517 27.0
36.2224 36.0
36.3931 62.0
36.5638 101.0
36.7344 634.0
36.9051 663.0
37.0758 107.0
37.2465 50.0
37.4172 38.0
37.5879 33.0
37.7586 47.0
37.9293 24.0
38.1 40.0
38.2707 30.0
38.4414 35.0
38.6121 35.0
38.7828 30.0
38.9535 42.0
39.1242 19.0
39.2949 28.0
39.4655 25.0
39.6362 26.0
39.8069 37.0
39.9776 28.0
40.1483 29.0
40.319 35.0
40.4897 33.0
40.6604 21.0
40.8311 32.0
41.0018 42.0
41.1725 27.0
41.3432 28.0
41.5139 23.0
41.6846 29.0
41.8553 30.0
42.0259 39.0
42.1966 26.0
42.3673 28.0
42.538 16.0
42.7087 28.0
42.8794 20.0
43.0501 21.0
43.2208 24.0
43.3915 20.0
43.5622 34.0
43.7329 24.0
43.9036 18.0
44.0743 28.0
44.245 27.0
44.4157 27.0
44.5864 28.0
44.757 19.0
44.9277 33.0
45.0984 31.0
45.2691 39.0
45.4398 161.0
45.6105 182.0
45.7812 33.0
45.9519 28.0
46.1226 27.0
46.2933 23.0
46.464 22.0
46.6347 25.0
46.8054 16.0
46.9761 20.0
47.1468 22.0
47.3175 20.0
47.4881 20.0
47.6588 20.0
47.8295 20.0
48.0002 28.0
48.1709 16.0
48.3416 21.0
48.5123 18.0
48.683 24.0
48.8537 23.0
49.0244 25.0
49.1951 20.0
49.3658 30.0
49.5365 18.0
49.7072 20.0
49.8779 25.0
50.0486 27.0
50.2192 25.0
50.3899 30.0
50.5606 31.0
50.7313 27.0
50.902 30.0
51.0727 24.0
51.2434 29.0
51.4141 13.0
51.5848 19.0
51.7555 22.0
51.9262 26.0
52.0969 15.0
52.2676 22.0
52.4383 20.0
52.609 49.0
52.7797 103.0
52.9503 96.0
53.121 138.0
53.2917 122.0
53.4624 53.0
53.6331 27.0
53.8038 22.0
53.9745 32.0
54.1452 16.0
54.3159 18.0
54.4866 19.0
54.6573 22.0
54.828 25.0
54.9987 19.0
55.1694 19.0
55.3401 22.0
55.5107 24.0
55.6814 22.0
55.8521 16.0
56.0228 23.0
56.1935 30.0
56.3642 17.0
56.5349 27.0
56.7056 19.0
56.8763 18.0
57.047 16.0
57.2177 17.0
57.3884 16.0
57.5591 19.0
57.7298 17.0
57.9005 26.0
58.0712 17.0
58.2418 17.0
58.4125 17.0
58.5832 19.0
58.7539 14.0
58.9246 17.0
59.0953 19.0
59.266 19.0
59.4367 26.0
59.6074 39.0
59.7781 46.0
59.9488 52.0
60.1195 45.0
60.2902 20.0
60.4609 20.0
60.6316 19.0
60.8023 9.0
60.9729 20.0
61.1436 17.0
61.3143 28.0
61.485 15.0
61.6557 16.0
61.8264 16.0
61.9971 17.0
62.1678 17.0
62.3385 19.0
62.5092 12.0
62.6799 15.0
62.8506 26.0
63.0213 19.0
63.192 19.0
63.3627 11.0
63.5334 14.0
63.704 15.0
63.8747 17.0
64.0454 18.0
64.2161 18.0
64.3868 18.0
64.5575 13.0
64.7282 18.0
64.8989 15.0
65.0696 21.0
65.2403 20.0
65.411 21.0
65.5817 22.0
65.7524 30.0
65.9231 31.0
66.0938 94.0
66.2645 141.0
66.4351 242.0
66.6058 113.0
66.7765 25.0
66.9472 16.0
67.1179 13.0
67.2886 23.0
67.4593 27.0
67.63 16.0
67.8007 15.0
67.9714 15.0
68.1421 15.0
68.3128 16.0
68.4835 18.0
68.6542 24.0
68.8249 18.0
68.9955 17.0
69.1662 20.0
69.3369 25.0
69.5076 22.0
69.6783 16.0
69.849 13.0
69.9935 13.0

File: SAMPLE2_XRD.csv
20.0065 72.0
20.1772 69.0
20.3479 77.0
20.5185 67.0
20.6892 58.0
20.8599 74.0
21.0306 71.0
21.2013 80.0
21.372 61.0
21.5427 80.0
21.7134 63.0
21.8841 67.0
22.0548 62.0
22.2255 78.0
22.3962 63.0
22.5669 60.0
22.7376 78.0
22.9083 80.0
23.079 73.0
23.2496 71.0
23.4203 63.0
23.591 70.0
23.7617 58.0
23.9324 50.0
24.1031 59.0
24.2738 57.0
24.4445 60.0
24.6152 44.0
24.7859 61.0
24.9566 65.0
25.1273 72.0
25.298 61.0
25.4687 67.0
25.6394 155.0
25.8101 194.0
25.9807 83.0
26.1514 66.0
26.3221 49.0
26.4928 56.0
26.6635 55.0
26.8342 54.0
27.0049 57.0
27.1756 49.0
27.3463 59.0
27.517 48.0
27.6877 52.0
27.8584 60.0
28.0291 49.0
28.1998 41.0
28.3705 37.0
28.5411 47.0
28.7118 61.0
28.8825 41.0
29.0532 57.0
29.2239 39.0
29.3946 45.0
29.5653 44.0
29.736 52.0
29.9067 60.0
30.0774 54.0
30.2481 50.0
30.4188 38.0
30.5895 46.0
30.7602 36.0
30.9309 46.0
31.1016 43.0
31.2722 47.0
31.4429 56.0
31.6136 44.0
31.7843 44.0
31.955 62.0
32.1257 44.0
32.2964 39.0
32.4671 44.0
32.6378 46.0
32.8085 59.0
32.9792 50.0
33.1499 50.0
33.3206 50.0
33.4913 49.0
33.662 48.0
33.8327 53.0
34.0033 37.0
34.174 48.0
34.3447 44.0
34.5154 30.0
34.6861 31.0
34.8568 34.0
35.0275 34.0
35.1982 35.0
35.3689 41.0
35.5396 39.0
35.7103 44.0
35.881 37.0
36.0517 48.0
36.2224 54.0
36.3931 50.0
36.5638 97.0
36.7344 820.0
36.9051 652.0
37.0758 107.0
37.2465 60.0
37.4172 47.0
37.5879 41.0
37.7586 25.0
37.9293 36.0
38.1 41.0
38.2707 39.0
38.4414 51.0
38.6121 44.0
38.7828 38.0
38.9535 41.0
39.1242 45.0
39.2949 25.0
39.4655 30.0
39.6362 31.0
39.8069 40.0
39.9776 44.0
40.1483 38.0
40.319 26.0
40.4897 34.0
40.6604 31.0
40.8311 22.0
41.0018 36.0
41.1725 36.0
41.3432 40.0
41.5139 35.0
41.6846 39.0
41.8553 22.0
42.0259 32.0
42.1966 39.0
42.3673 34.0
42.538 40.0
42.7087 32.0
42.8794 31.0
43.0501 22.0
43.2208 30.0
43.3915 32.0
43.5622 32.0
43.7329 36.0
43.9036 24.0
44.0743 29.0
44.245 33.0
44.4157 22.0
44.5864 30.0
44.757 36.0
44.9277 31.0
45.0984 46.0
45.2691 54.0
45.4398 201.0
45.6105 212.0
45.7812 53.0
45.9519 45.0
46.1226 35.0
46.2933 24.0
46.464 24.0
46.6347 38.0
46.8054 29.0
46.9761 26.0
47.1468 33.0
47.3175 27.0
47.4881 30.0
47.6588 33.0
47.8295 29.0
48.0002 37.0
48.1709 35.0
48.3416 21.0
48.5123 31.0
48.683 25.0
48.8537 29.0
49.0244 25.0
49.1951 37.0
49.3658 20.0
49.5365 27.0
49.7072 27.0
49.8779 26.0
50.0486 24.0
50.2192 22.0
50.3899 31.0
50.5606 31.0
50.7313 23.0
50.902 26.0
51.0727 22.0
51.2434 29.0
51.4141 24.0
51.5848 29.0
51.7555 30.0
51.9262 39.0
52.0969 29.0
52.2676 21.0
52.4383 23.0
52.609 49.0
52.7797 99.0
52.9503 94.0
53.121 144.0
53.2917 116.0
53.4624 55.0
53.6331 27.0
53.8038 22.0
53.9745 29.0
54.1452 25.0
54.3159 23.0
54.4866 32.0
54.6573 28.0
54.828 30.0
54.9987 24.0
55.1694 22.0
55.3401 30.0
55.5107 26.0
55.6814 30.0
55.8521 26.0
56.0228 22.0
56.1935 28.0
56.3642 17.0
56.5349 27.0
56.7056 20.0
56.8763 17.0
57.047 20.0
57.2177 29.0
57.3884 39.0
57.5591 22.0
57.7298 25.0
57.9005 23.0
58.0712 21.0
58.2418 25.0
58.4125 25.0
58.5832 19.0
58.7539 27.0
58.9246 21.0
59.0953 29.0
59.266 29.0
59.4367 27.0
59.6074 50.0
59.7781 49.0
59.9488 52.0
60.1195 73.0
60.2902 33.0
60.4609 21.0
60.6316 26.0
60.8023 22.0
60.9729 24.0
61.1436 18.0
61.3143 25.0
61.485 20.0
61.6557 21.0
61.8264 16.0
61.9971 30.0
62.1678 22.0
62.3385 29.0
62.5092 27.0
62.6799 22.0
62.8506 25.0
63.0213 34.0
63.192 23.0
63.3627 23.0
63.5334 23.0
63.704 19.0
63.8747 21.0
64.0454 25.0
64.2161 18.0
64.3868 26.0
64.5575 26.0
64.7282 18.0
64.8989 18.0
65.0696 25.0
65.2403 24.0
65.411 31.0
65.5817 20.0
65.7524 27.0
65.9231 59.0
66.0938 122.0
66.2645 165.0
66.4351 237.0
66.6058 96.0
66.7765 31.0
66.9472 14.0
67.1179 25.0
67.2886 31.0
67.4593 24.0
67.63 26.0
67.8007 14.0
67.9714 23.0
68.1421 23.0
68.3128 23.0
68.4835 26.0
68.6542 12.0
68.8249 26.0
68.9955 31.0
69.1662 22.0
69.3369 18.0
69.5076 23.0
69.6783 25.0
69.849 19.0
69.9935 19.0

File: SAMPLE3_XRD.csv
20.0065 67.0
20.1772 60.0
20.3479 85.0
20.5185 67.0
20.6892 72.0
20.8599 51.0
21.0306 63.0
21.2013 72.0
21.372 69.0
21.5427 74.0
21.7134 64.0
21.8841 65.0
22.0548 74.0
22.2255 70.0
22.3962 74.0
22.5669 61.0
22.7376 61.0
22.9083 62.0
23.079 53.0
23.2496 51.0
23.4203 57.0
23.591 72.0
23.7617 68.0
23.9324 45.0
24.1031 64.0
24.2738 63.0
24.4445 51.0
24.6152 51.0
24.7859 51.0
24.9566 56.0
25.1273 45.0
25.298 57.0
25.4687 69.0
25.6394 113.0
25.8101 170.0
25.9807 92.0
26.1514 69.0
26.3221 69.0
26.4928 56.0
26.6635 58.0
26.8342 58.0
27.0049 48.0
27.1756 60.0
27.3463 39.0
27.517 49.0
27.6877 51.0
27.8584 65.0
28.0291 73.0
28.1998 54.0
28.3705 52.0
28.5411 46.0
28.7118 48.0
28.8825 46.0
29.0532 49.0
29.2239 51.0
29.3946 59.0
29.5653 56.0
29.736 52.0
29.9067 49.0
30.0774 51.0
30.2481 48.0
30.4188 54.0
30.5895 54.0
30.7602 51.0
30.9309 57.0
31.1016 57.0
31.2722 34.0
31.4429 46.0
31.6136 53.0
31.7843 48.0
31.955 47.0
32.1257 50.0
32.2964 48.0
32.4671 50.0
32.6378 57.0
32.8085 73.0
32.9792 75.0
33.1499 62.0
33.3206 47.0
33.4913 48.0
33.662 38.0
33.8327 39.0
34.0033 59.0
34.174 45.0
34.3447 38.0
34.5154 41.0
34.6861 35.0
34.8568 53.0
35.0275 54.0
35.1982 39.0
35.3689 53.0
35.5396 45.0
35.7103 47.0
35.881 53.0
36.0517 57.0
36.2224 43.0
36.3931 60.0
36.5638 96.0
36.7344 645.0
36.9051 677.0
37.0758 118.0
37.2465 58.0
37.4172 38.0
37.5879 35.0
37.7586 57.0
37.9293 43.0
38.1 34.0
38.2707 46.0
38.4414 42.0
38.6121 48.0
38.7828 46.0
38.9535 48.0
39.1242 46.0
39.2949 36.0
39.4655 37.0
39.6362 40.0
39.8069 43.0
39.9776 49.0
40.1483 52.0
40.319 37.0
40.4897 33.0
40.6604 43.0
40.8311 39.0
41.0018 45.0
41.1725 41.0
41.3432 37.0
41.5139 45.0
41.6846 38.0
41.8553 34.0
42.0259 28.0
42.1966 52.0
42.3673 30.0
42.538 36.0
42.7087 45.0
42.8794 42.0
43.0501 29.0
43.2208 36.0
43.3915 39.0
43.5622 32.0
43.7329 30.0
43.9036 29.0
44.0743 35.0
44.245 44.0
44.4157 40.0
44.5864 39.0
44.757 23.0
44.9277 36.0
45.0984 46.0
45.2691 56.0
45.4398 145.0
45.6105 218.0
45.7812 47.0
45.9519 33.0
46.1226 47.0
46.2933 56.0
46.464 34.0
46.6347 42.0
46.8054 33.0
46.9761 32.0
47.1468 41.0
47.3175 38.0
47.4881 38.0
47.6588 31.0
47.8295 31.0
48.0002 24.0
48.1709 23.0
48.3416 23.0
48.5123 30.0
48.683 37.0
48.8537 28.0
49.0244 38.0
49.1951 34.0
49.3658 40.0
49.5365 46.0
49.7072 35.0
49.8779 34.0
50.0486 31.0
50.2192 33.0
50.3899 27.0
50.5606 37.0
50.7313 29.0
50.902 42.0
51.0727 36.0
51.2434 24.0
51.4141 22.0
51.5848 33.0
51.7555 26.0
51.9262 28.0
52.0969 37.0
52.2676 41.0
52.4383 29.0
52.609 67.0
52.7797 108.0
52.9503 101.0
53.121 133.0
53.2917 164.0
53.4624 45.0
53.6331 34.0
53.8038 28.0
53.9745 24.0
54.1452 34.0
54.3159 22.0
54.4866 29.0
54.6573 25.0
54.828 34.0
54.9987 24.0
55.1694 37.0
55.3401 32.0
55.5107 33.0
55.6814 29.0
55.8521 39.0
56.0228 27.0
56.1935 29.0
56.3642 26.0
56.5349 25.0
56.7056 32.0
56.8763 29.0
57.047 33.0
57.2177 31.0
57.3884 20.0
57.5591 21.0
57.7298 23.0
57.9005 44.0
58.0712 45.0
58.2418 38.0
58.4125 25.0
58.5832 44.0
58.7539 25.0
58.9246 34.0
59.0953 39.0
59.266 32.0
59.4367 47.0
59.6074 44.0
59.7781 63.0
59.9488 67.0
60.1195 63.0
60.2902 44.0
60.4609 29.0
60.6316 31.0
60.8023 32.0
60.9729 29.0
61.1436 25.0
61.3143 29.0
61.485 27.0
61.6557 35.0
61.8264 22.0
61.9971 37.0
62.1678 30.0
62.3385 26.0
62.5092 20.0
62.6799 23.0
62.8506 29.0
63.0213 24.0
63.192 30.0
63.3627 33.0
63.5334 26.0
63.704 37.0
63.8747 31.0
64.0454 27.0
64.2161 30.0
64.3868 23.0
64.5575 22.0
64.7282 16.0
64.8989 27.0
65.0696 22.0
65.2403 29.0
65.411 34.0
65.5817 33.0
65.7524 35.0
65.9231 37.0
66.0938 117.0
66.2645 142.0
66.4351 219.0
66.6058 128.0
66.7765 52.0
66.9472 36.0
67.1179 41.0
67.2886 36.0
67.4593 31.0
67.63 36.0
67.8007 33.0
67.9714 30.0
68.1421 28.0
68.3128 27.0
68.4835 28.0
68.6542 28.0
68.8249 25.0
68.9955 33.0
69.1662 36.0
69.3369 28.0
69.5076 29.0
69.6783 28.0
69.849 25.0
69.9935 20.0