Folder: MATLAB-Drive/Year 3/Mossbauer

File: XRD_CaZn 1V2_raw.csv
Angle,Intensity
5.00897,2713
5.33722,2839
5.66548,3001
5.99374,3171
6.32199,3349
6.65025,3422
6.97851,3640
7.30676,3778
7.63502,3855
7.96328,3934
8.29154,4106
8.61979,4243
8.94805,4523
9.27631,4651
9.60456,4555
9.93282,4867
10.2611,4740
10.5893,4948
10.9176,5027
11.2458,5128
11.5741,5121
11.9024,5277
12.2306,5268
12.5589,5447
12.8871,5409
13.2154,5562
13.5436,5356
13.8719,5631
14.2002,5766
14.5284,5718
14.8567,5677
15.1849,5673
15.5132,5680
15.8414,5552
16.1697,5779
16.498,5509
16.8262,5597
17.1545,5537
17.4827,5543
17.811,5450
18.1392,5348
18.4675,5433
18.7958,5347
19.124,5250
19.4523,5410
19.7805,5319
20.1088,5182
20.437,5074
20.7653,5135
21.0936,4959
21.4218,5164
21.7501,5138
22.0783,4890
22.4066,4972
22.7348,5018
23.0631,4964
23.3914,4882
23.7196,4803
24.0479,4791
24.3761,4925
24.7044,4866
25.0326,4721
25.3609,4800
25.6892,4780
26.0174,4719
26.3457,4714
26.6739,4625
27.0022,4563
27.3304,4656
27.6587,4592
27.987,4603
28.3152,4542
28.6435,4597
28.9717,4679
29.3,4495
29.6282,4586
29.9565,4675
30.2848,4545
30.613,4547
30.9413,4590
31.2695,4529
31.5978,4692
31.926,4633
32.2543,4490
32.5826,4524
32.9108,4502
33.2391,4623
33.5673,4609
33.8956,4633
34.2238,4581
34.5521,4493
34.8804,4454
35.2086,4588
35.5369,4593
35.8651,4683
36.1934,4546
36.5216,4560
36.8499,4492
37.1782,4415
37.5064,4412
37.8347,4301
38.1629,4305
38.4912,4287
38.8194,4272
39.1477,4358
39.476,4090
39.8042,4094
40.1325,4052
40.4607,4107
40.789,3925
41.1172,3913
41.4455,3972
41.7738,3918
42.102,3860
42.4303,3822
42.7585,3711
43.0868,3788
43.415,3693
43.7433,3585
44.0716,3564
44.3998,3430
44.7281,3424
45.0563,3453
45.3846,3453
45.7128,3395
46.0411,3249
46.3694,3358
46.6976,3420
47.0259,3268
47.3541,3352
47.6824,3377
48.0106,3408
48.3389,3320
48.6672,3243
48.9954,3307
49.3237,3285
49.6519,3244
49.9802,3297
50.3084,3250
50.6367,3166
50.965,3215
51.2932,3197
51.6215,3155
51.9497,3094
52.278,3272
52.6062,3078
52.9345,3109
53.2628,3167
53.591,3171
53.9193,3009
54.2475,3118
54.5758,3055
54.904,3025
55.2323,3041
55.5606,2845
55.8888,2947
56.2171,2965
56.5453,2944
56.8736,3004
57.2018,2883
57.5301,2895
57.8584,2824
58.1866,2830
58.5149,2922
58.8431,2839
59.1714,2883
59.4996,2757
59.8279,2769
60.1562,2803
60.4844,2845
60.8127,2732
61.1409,2789
61.4692,2626
61.7974,2697
62.1257,2627
62.454,2612
62.7822,2688
63.1105,2675
63.4387,2641
63.767,2635
64.0952,2721
64.4235,2579
64.7518,2552
65.08,2505
65.4083,2544
65.7365,2483
66.0648,2482
66.393,2527
66.7213,2550
67.0496,2533
67.3778,2515
67.7061,2466
68.0343,2421
68.3626,2462
68.6908,2515
69.0191,2490
69.3474,2511
69.6756,2414
70.0039,2393
70.3321,2493
70.6604,2389
70.9886,2458
71.3169,2513
71.6451,2371
71.9734,2338
72.3017,2327
72.6299,2261
72.9582,2278
73.2864,2322
73.6147,2335
73.9429,2381
74.2712,2275
74.5995,2315
74.9277,2273
75.256,2280
75.5842,2308
75.9125,2245
76.2407,2158
76.569,2234
76.8973,2226
77.2255,2244
77.5538,2188
77.882,2189
78.2103,2251
78.5385,2235
78.8668,2296
79.1951,2166
79.5233,2145
79.8516,2163
80.1798,2214
80.5081,2188
80.8363,2154
81.1646,2092
81.4929,2112
81.8211,2156
82.1494,2157
82.4776,2070
82.80589,2130
83.1341,2111
83.4624,2122
83.7907,2114
84.1189,2111
84.4472,2131
84.7754,2039
85.1037,2131
85.4319,2030
85.7602,2120
86.0885,2056
86.4167,2150
86.745,2064
87.0732,2103
87.4015,2068
87.7297,2077
88.058,2074
88.3863,2122
88.7145,2044
89.0428,2098
89.371,2061
89.6993,2072
90.0275,2051
90.3558,2059
90.6841,2072
91.0123,2124
91.3406,2051
91.6688,1987
91.9971,2076
92.3253,1995
92.6536,2057
92.9819,2044
93.3101,2059
93.6384,2006
93.9666,2037
94.2949,2023
94.6231,2051
94.9514,2019
95.2797,2041
95.6079,1996
95.9362,2032
96.2644,2067
96.5927,2015
96.9209,1995
97.2492,2042
97.5775,1999
97.9057,1990
98.234,2061
98.5622,2010
98.8905,2086
99.2187,2044
99.547,1952
99.8753,2008
99.9934,2026

File: XRD_CaZn 4V2_raw.csv
Angle,Intensity
5.00897,3049
5.33722,3087
5.66548,3286
5.99374,3427
6.32199,3553
6.65025,3690
6.97851,3834
7.30676,4030
7.63502,4218
7.96328,4238
8.29154,4419
8.61979,4754
8.94805,4750
9.27631,5062
9.60456,5004
9.93282,5193
10.2611,5299
10.5893,5219
10.9176,5506
11.2458,5761
11.5741,5669
11.9024,5765
12.2306,5800
12.5589,5761
12.8871,6028
13.2154,6105
13.5436,6122
13.8719,6277
14.2002,6319
14.5284,6233
14.8567,6355
15.1849,6387
15.5132,6550
15.8414,6578
16.1697,6432
16.498,6397
16.8262,6290
17.1545,6396
17.4827,6354
17.811,6333
18.1392,6213
18.4675,6253
18.7958,6167
19.124,6074
19.4523,6033
19.7805,6004
20.1088,5849
20.437,6088
20.7653,5955
21.0936,6013
21.4218,5839
21.7501,5754
22.0783,5835
22.4066,5855
22.7348,5730
23.0631,5725
23.3914,5663
23.7196,5803
24.0479,5720
24.3761,5808
24.7044,5796
25.0326,5637
25.3609,5532
25.6892,5621
26.0174,5415
26.3457,5673
26.6739,5614
27.0022,5604
27.3304,5613
27.6587,5606
27.987,5604
28.3152,5522
28.6435,5338
28.9717,5481
29.3,5476
29.6282,5403
29.9565,5554
30.2848,5388
30.613,5378
30.9413,5451
31.2695,5353
31.5978,5428
31.926,5486
32.2543,5656
32.5826,5287
32.9108,5444
33.2391,5460
33.5673,5497
33.8956,5555
34.2238,5210
34.5521,5357
34.8804,5521
35.2086,5574
35.5369,5433
35.8651,5611
36.1934,5472
36.5216,5548
36.8499,5301
37.1782,5497
37.5064,5384
37.8347,5339
38.1629,5283
38.4912,5159
38.8194,5181
39.1477,5260
39.476,5170
39.8042,5096
40.1325,5182
40.4607,4940
40.789,4937
41.1172,4989
41.4455,5017
41.7738,4908
42.102,4725
42.4303,4730
42.7585,4551
43.0868,4669
43.415,4590
43.7433,4487
44.0716,4529
44.3998,4424
44.7281,4387
45.0563,4327
45.3846,4305
45.7128,4375
46.0411,4226
46.3694,4155
46.6976,4204
47.0259,4211
47.3541,4285
47.6824,4164
48.0106,4079
48.3389,4046
48.6672,4119
48.9954,4160
49.3237,4071
49.6519,4139
49.9802,4195
50.3084,4190
50.6367,4181
50.965,4089
51.2932,4100
51.6215,4113
51.9497,4063
52.278,4191
52.6062,4040
52.9345,4094
53.2628,4007
53.591,3988
53.9193,4001
54.2475,3992
54.5758,3984
54.904,3834
55.2323,3919
55.5606,3935
55.8888,3983
56.2171,3862
56.5453,3982
56.8736,3915
57.2018,3899
57.5301,3791
57.8584,3857
58.1866,3915
58.5149,3848
58.8431,3867
59.1714,3823
59.4996,3839
59.8279,3782
60.1562,3807
60.4844,3692
60.8127,3662
61.1409,3691
61.4692,3649
61.7974,3701
62.1257,3795
62.454,3609
62.7822,3698
63.1105,3784
63.4387,3738
63.767,3553
64.0952,3641
64.4235,3646
64.7518,3592
65.08,3638
65.4083,3615
65.7365,3522
66.0648,3477
66.393,3524
66.7213,3496
67.0496,3575
67.3778,3522
67.7061,3520
68.0343,3478
68.3626,3507
68.6908,3372
69.0191,3556
69.3474,3378
69.6756,3434
70.0039,3392
70.3321,3368
70.6604,3344
70.9886,3308
71.3169,3462
71.6451,3342
71.9734,3360
72.3017,3312
72.6299,3236
72.9582,3331
73.2864,3290
73.6147,3354
73.9429,3366
74.2712,3367
74.5995,3200
74.9277,3253
75.256,3400
75.5842,3222
75.9125,3153
76.2407,3274
76.569,3255
76.8973,3267
77.2255,3159
77.5538,3248
77.882,3162
78.2103,3130
78.5385,3193
78.8668,3145
79.1951,3153
79.5233,3231
79.8516,3272
80.1798,3132
80.5081,3075
80.8363,3149
81.1646,3018
81.4929,3125
81.8211,3176
82.1494,3140
82.4776,3070
82.80589,2964
83.1341,3023
83.4624,3076
83.7907,2995
84.1189,2965
84.4472,3037
84.7754,2997
85.1037,2979
85.4319,2866
85.7602,3036
86.0885,3012
86.4167,3015
86.745,2928
87.0732,2972
87.4015,2932
87.7297,2925
88.058,2883
88.3863,2901
88.7145,3104
89.0428,2993
89.371,2950
89.6993,2968
90.0275,2830
90.3558,2853
90.6841,3094
91.0123,2921
91.3406,2934
91.6688,2947
91.9971,2972
92.3253,2982
92.6536,3086
92.9819,2888
93.3101,2909
93.6384,2900
93.9666,2950
94.2949,2926
94.6231,2899
94.9514,2958
95.2797,2982
95.6079,3111
95.9362,2933
96.2644,3010
96.5927,2946
96.9209,3030
97.2492,2886
97.5775,2902
97.9057,2936
98.234,2916
98.5622,3047
98.8905,2879
99.2187,2826
99.547,2891
99.8753,2986
99.9934,2920

File: XRD_NBS1_raw.csv
Angle,Intensity
5.00897,2828
5.33722,2936
5.66548,3226
5.99374,3429
6.32199,3598
6.65025,3878
6.97851,3973
7.30676,4200
7.63502,4416
7.96328,4603
8.29154,4775
8.61979,5003
8.94805,5220
9.27631,5180
9.60456,5400
9.93282,5516
10.2611,5519
10.5893,5717
10.9176,5849
11.2458,5922
11.5741,5940
11.9024,6282
12.2306,6217
12.5589,6306
12.8871,6313
13.2154,6569
13.5436,6627
13.8719,6593
14.2002,6501
14.5284,6866
14.8567,6778
15.1849,6720
15.5132,6781
15.8414,6663
16.1697,6702
16.498,6757
16.8262,6686
17.1545,6588
17.4827,6710
17.811,6489
18.1392,6660
18.4675,6461
18.7958,6456
19.124,6603
19.4523,6391
19.7805,6392
20.1088,6431
20.437,6488
20.7653,6419
21.0936,6388
21.4218,6199
21.7501,6261
22.0783,6288
22.4066,6157
22.7348,6246
23.0631,6066
23.3914,6068
23.7196,5970
24.0479,5829
24.3761,5813
24.7044,5863
25.0326,5928
25.3609,5622
25.6892,5771
26.0174,5842
26.3457,5820
26.6739,5661
27.0022,5688
27.3304,5575
27.6587,5571
27.987,5516
28.3152,5460
28.6435,5505
28.9717,5521
29.3,5604
29.6282,5455
29.9565,5506
30.2848,5501
30.613,5484
30.9413,5460
31.2695,5357
31.5978,5359
31.926,5475
32.2543,5352
32.5826,5220
32.9108,5351
33.2391,5269
33.5673,5412
33.8956,5348
34.2238,5295
34.5521,5263
34.8804,5293
35.2086,5417
35.5369,5184
35.8651,5268
36.1934,5103
36.5216,5044
36.8499,5150
37.1782,5009
37.5064,5140
37.8347,4987
38.1629,4864
38.4912,4798
38.8194,4662
39.1477,4653
39.476,4609
39.8042,4375
40.1325,4399
40.4607,4379
40.789,4279
41.1172,4105
41.4455,4010
41.7738,4027
42.102,4009
42.4303,3922
42.7585,3745
43.0868,3733
43.415,3763
43.7433,3580
44.0716,3496
44.3998,3656
44.7281,3513
45.0563,3384
45.3846,3544
45.7128,3379
46.0411,3398
46.3694,3314
46.6976,3234
47.0259,3180
47.3541,3376
47.6824,3204
48.0106,3282
48.3389,3259
48.6672,3271
48.9954,3135
49.3237,3229
49.6519,3313
49.9802,3284
50.3084,3190
50.6367,3156
50.965,3153
51.2932,3109
51.6215,3227
51.9497,3108
52.278,3103
52.6062,3091
52.9345,2990
53.2628,3030
53.591,3055
53.9193,2942
54.2475,2906
54.5758,3034
54.904,3000
55.2323,2846
55.5606,2892
55.8888,2911
56.2171,2784
56.5453,2801
56.8736,2798
57.2018,2704
57.5301,2807
57.8584,2704
58.1866,2711
58.5149,2657
58.8431,2611
59.1714,2616
59.4996,2566
59.8279,2563
60.1562,2716
60.4844,2663
60.8127,2530
61.1409,2561
61.4692,2563
61.7974,2486
62.1257,2531
62.454,2551
62.7822,2545
63.1105,2489
63.4387,2514
63.767,2504
64.0952,2471
64.4235,2467
64.7518,2477
65.08,2363
65.4083,2492
65.7365,2477
66.0648,2432
66.393,2438
66.7213,2496
67.0496,2345
67.3778,2294
67.7061,2425
68.0343,2369
68.3626,2343
68.6908,2423
69.0191,2344
69.3474,2277
69.6756,2267
70.0039,2316
70.3321,2355
70.6604,2298
70.9886,2329
71.3169,2208
71.6451,2207
71.9734,2314
72.3017,2234
72.6299,2281
72.9582,2179
73.2864,2212
73.6147,2280
73.9429,2322
74.2712,2271
74.5995,2295
74.9277,2250
75.256,2244
75.5842,2205
75.9125,2228
76.2407,2144
76.569,2192
76.8973,2244
77.2255,2200
77.5538,2069
77.882,2169
78.2103,2190
78.5385,2200
78.8668,2140
79.1951,2065
79.5233,2144
79.8516,2158
80.1798,2021
80.5081,2151
80.8363,2073
81.1646,2132
81.4929,2106
81.8211,2048
82.1494,1913
82.4776,2015
82.80589,1982
83.1341,2016
83.4624,2012
83.7907,1939
84.1189,1952
84.4472,2096
84.7754,2012
85.1037,1960
85.4319,2036
85.7602,1977
86.0885,2021
86.4167,1987
86.745,2027
87.0732,1983
87.4015,1958
87.7297,2043
88.058,1981
88.3863,1907
88.7145,1972
89.0428,2060
89.371,2042
89.6993,1923
90.0275,1966
90.3558,1971
90.6841,1953
91.0123,1950
91.3406,1983
91.6688,1951
91.9971,1970
92.3253,1937
92.6536,1928
92.9819,1922
93.3101,1934
93.6384,1936
93.9666,1900
94.2949,1911
94.6231,1865
94.9514,1920
95.2797,1942
95.6079,1893
95.9362,1895
96.2644,1899
96.5927,1979
96.9209,1831
97.2492,1974
97.5775,1894
97.9057,1898
98.234,1943
98.5622,1821
98.8905,1917
99.2187,1876
99.547,1923
99.8753,1888
99.9934,1885

File: XRD_NBS4_raw.csv
Angle,Intensity
5.00897,3208
5.33722,3352
5.66548,3619
5.99374,3758
6.32199,4003
6.65025,4201
6.97851,4484
7.30676,4589
7.63502,4692
7.96328,4948
8.29154,5184
8.61979,5229
8.94805,5695
9.27631,5773
9.60456,5920
9.93282,5960
10.2611,6042
10.5893,6180
10.9176,6395
11.2458,6384
11.5741,6507
11.9024,6578
12.2306,6624
12.5589,6698
12.8871,6873
13.2154,6854
13.5436,7130
13.8719,7298
14.2002,7268
14.5284,7247
14.8567,7357
15.1849,7402
15.5132,7608
15.8414,7506
16.1697,7632
16.498,7427
16.8262,7472
17.1545,7501
17.4827,7445
17.811,7546
18.1392,7425
18.4675,7475
18.7958,7214
19.124,7353
19.4523,7296
19.7805,7291
20.1088,7233
20.437,7337
20.7653,7361
21.0936,7356
21.4218,7337
21.7501,7263
22.0783,7284
22.4066,7193
22.7348,7184
23.0631,6986
23.3914,7136
23.7196,7064
24.0479,7107
24.3761,6972
24.7044,7131
25.0326,6884
25.3609,6924
25.6892,6918
26.0174,6841
26.3457,6813
26.6739,6686
27.0022,6706
27.3304,6593
27.6587,6632
27.987,6532
28.3152,6563
28.6435,6644
28.9717,6556
29.3,6566
29.6282,6478
29.9565,6617
30.2848,6544
30.613,6623
30.9413,6509
31.2695,6504
31.5978,6522
31.926,6495
32.2543,6424
32.5826,6586
32.9108,6395
33.2391,6458
33.5673,6521
33.8956,6780
34.2238,6468
34.5521,6496
34.8804,6474
35.2086,6484
35.5369,6402
35.8651,6521
36.1934,6338
36.5216,6355
36.8499,6339
37.1782,6264
37.5064,6319
37.8347,6108
38.1629,6054
38.4912,6021
38.8194,5884
39.1477,5856
39.476,5921
39.8042,5800
40.1325,5781
40.4607,5637
40.789,5459
41.1172,5501
41.4455,5373
41.7738,5277
42.102,5237
42.4303,5340
42.7585,5044
43.0868,5085
43.415,4893
43.7433,4881
44.0716,4959
44.3998,4929
44.7281,4808
45.0563,4718
45.3846,4810
45.7128,4663
46.0411,4804
46.3694,4637
46.6976,4671
47.0259,4650
47.3541,4537
47.6824,4563
48.0106,4576
48.3389,4495
48.6672,4661
48.9954,4545
49.3237,4569
49.6519,4447
49.9802,4567
50.3084,4602
50.6367,4503
50.965,4486
51.2932,4481
51.6215,4510
51.9497,4429
52.278,4580
52.6062,4565
52.9345,4343
53.2628,4503
53.591,4493
53.9193,4487
54.2475,4312
54.5758,4412
54.904,4355
55.2323,4384
55.5606,4318
55.8888,4260
56.2171,4238
56.5453,4088
56.8736,4171
57.2018,4116
57.5301,4201
57.8584,4167
58.1866,4129
58.5149,4144
58.8431,4050
59.1714,3987
59.4996,3982
59.8279,4037
60.1562,3967
60.4844,4012
60.8127,4066
61.1409,3943
61.4692,4062
61.7974,3955
62.1257,3964
62.454,4028
62.7822,4052
63.1105,3927
63.4387,3934
63.767,3904
64.0952,3948
64.4235,4008
64.7518,3985
65.08,3930
65.4083,4008
65.7365,3889
66.0648,3923
66.393,3869
66.7213,3898
67.0496,3825
67.3778,3943
67.7061,3891
68.0343,3852
68.3626,3810
68.6908,3821
69.0191,3766
69.3474,3749
69.6756,3765
70.0039,3864
70.3321,3813
70.6604,3782
70.9886,3762
71.3169,3812
71.6451,3854
71.9734,3767
72.3017,3864
72.6299,3829
72.9582,3862
73.2864,3819
73.6147,3768
73.9429,3777
74.2712,3831
74.5995,3789
74.9277,3901
75.256,3664
75.5842,3682
75.9125,3736
76.2407,3822
76.569,3714
76.8973,3634
77.2255,3691
77.5538,3716
77.882,3562
78.2103,3656
78.5385,3612
78.8668,3726
79.1951,3614
79.5233,3686
79.8516,3586
80.1798,3658
80.5081,3675
80.8363,3484
81.1646,3548
81.4929,3541
81.8211,3561
82.1494,3577
82.4776,3535
82.80589,3560
83.1341,3503
83.4624,3610
83.7907,3466
84.1189,3567
84.4472,3468
84.7754,3523
85.1037,3483
85.4319,3449
85.7602,3526
86.0885,3487
86.4167,3600
86.745,3527
87.0732,3557
87.4015,3439
87.7297,3374
88.058,3487
88.3863,3384
88.7145,3403
89.0428,3333
89.371,3378
89.6993,3406
90.0275,3474
90.3558,3402
90.6841,3443
91.0123,3308
91.3406,3421
91.6688,3408
91.9971,3504
92.3253,3346
92.6536,3352
92.9819,3488
93.3101,3353
93.6384,3332
93.9666,3385
94.2949,3496
94.6231,3368
94.9514,3372
95.2797,3482
95.6079,3331
95.9362,3465
96.2644,3398
96.5927,3508
96.9209,3477
97.2492,3490
97.5775,3474
97.9057,3378
98.234,3488
98.5622,3402
98.8905,3421
99.2187,3413
99.547,3433
99.8753,3486
99.9934,3373

File: XRD_SLS1_raw.csv
Angle,Intensity
5.00897,2789
5.33722,2859
5.66548,3157
5.99374,3324
6.32199,3497
6.65025,3768
6.97851,3986
7.30676,4115
7.63502,4238
7.96328,4447
8.29154,4466
8.61979,4522
8.94805,4994
9.27631,4862
9.60456,5035
9.93282,5072
10.2611,5277
10.5893,5466
10.9176,5374
11.2458,5418
11.5741,5574
11.9024,5590
12.2306,5640
12.5589,5610
12.8871,5613
13.2154,5649
13.5436,5599
13.8719,5891
14.2002,5784
14.5284,5887
14.8567,5796
15.1849,5707
15.5132,5695
15.8414,5870
16.1697,5692
16.498,5806
16.8262,5566
17.1545,5671
17.4827,5713
17.811,5593
18.1392,5513
18.4675,5547
18.7958,5431
19.124,5386
19.4523,5404
19.7805,5405
20.1088,5444
20.437,5246
20.7653,5450
21.0936,5428
21.4218,5286
21.7501,5301
22.0783,5385
22.4066,5382
22.7348,5316
23.0631,5457
23.3914,5467
23.7196,5369
24.0479,5381
24.3761,5446
24.7044,5362
25.0326,5350
25.3609,5474
25.6892,5392
26.0174,5321
26.3457,5231
26.6739,5346
27.0022,5233
27.3304,5414
27.6587,5212
27.987,5193
28.3152,5204
28.6435,5159
28.9717,5055
29.3,5061
29.6282,4906
29.9565,4934
30.2848,4908
30.613,4780
30.9413,4878
31.2695,4779
31.5978,4634
31.926,4537
32.2543,4540
32.5826,4396
32.9108,4392
33.2391,4356
33.5673,4308
33.8956,4241
34.2238,4252
34.5521,4023
34.8804,4014
35.2086,4042
35.5369,3965
35.8651,4052
36.1934,3924
36.5216,3940
36.8499,3794
37.1782,3748
37.5064,3714
37.8347,3637
38.1629,3619
38.4912,3423
38.8194,3333
39.1477,3341
39.476,3461
39.8042,3270
40.1325,3153
40.4607,3242
40.789,3193
41.1172,3152
41.4455,3110
41.7738,3043
42.102,2894
42.4303,2995
42.7585,2767
43.0868,2742
43.415,2799
43.7433,2681
44.0716,2749
44.3998,2760
44.7281,2477
45.0563,2622
45.3846,2495
45.7128,2511
46.0411,2522
46.3694,2501
46.6976,2506
47.0259,2502
47.3541,2608
47.6824,2504
48.0106,2432
48.3389,2438
48.6672,2420
48.9954,2322
49.3237,2444
49.6519,2372
49.9802,2420
50.3084,2317
50.6367,2322
50.965,2337
51.2932,2292
51.6215,2263
51.9497,2259
52.278,2262
52.6062,2254
52.9345,2179
53.2628,2232
53.591,2267
53.9193,2191
54.2475,2086
54.5758,2195
54.904,2196
55.2323,2101
55.5606,2022
55.8888,2108
56.2171,2044
56.5453,2097
56.8736,2092
57.2018,1923
57.5301,2000
57.8584,2026
58.1866,1971
58.5149,2072
58.8431,1998
59.1714,1912
59.4996,1970
59.8279,1980
60.1562,1996
60.4844,1988
60.8127,1958
61.1409,1886
61.4692,1890
61.7974,1938
62.1257,1910
62.454,1835
62.7822,1852
63.1105,1862
63.4387,1880
63.767,1855
64.0952,1850
64.4235,1921
64.7518,1799
65.08,1828
65.4083,1796
65.7365,1864
66.0648,1871
66.393,1787
66.7213,1764
67.0496,1747
67.3778,1786
67.7061,1737
68.0343,1754
68.3626,1794
68.6908,1705
69.0191,1746
69.3474,1711
69.6756,1756
70.0039,1768
70.3321,1774
70.6604,1737
70.9886,1715
71.3169,1748
71.6451,1691
71.9734,1821
72.3017,1752
72.6299,1770
72.9582,1746
73.2864,1697
73.6147,1687
73.9429,1686
74.2712,1678
74.5995,1748
74.9277,1679
75.256,1706
75.5842,1734
75.9125,1675
76.2407,1691
76.569,1635
76.8973,1662
77.2255,1651
77.5538,1647
77.882,1675
78.2103,1640
78.5385,1590
78.8668,1614
79.1951,1620
79.5233,1610
79.8516,1629
80.1798,1667
80.5081,1698
80.8363,1541
81.1646,1586
81.4929,1538
81.8211,1602
82.1494,1559
82.4776,1595
82.80589,1537
83.1341,1543
83.4624,1591
83.7907,1613
84.1189,1563
84.4472,1592
84.7754,1614
85.1037,1574
85.4319,1565
85.7602,1593
86.0885,1567
86.4167,1539
86.745,1538
87.0732,1514
87.4015,1572
87.7297,1565
88.058,1614
88.3863,1532
88.7145,1496
89.0428,1468
89.371,1462
89.6993,1570
90.0275,1499
90.3558,1540
90.6841,1480
91.0123,1501
91.3406,1430
91.6688,1496
91.9971,1509
92.3253,1460
92.6536,1383
92.9819,1474
93.3101,1470
93.6384,1421
93.9666,1463
94.2949,1480
94.6231,1413
94.9514,1457
95.2797,1415
95.6079,1433
95.9362,1480
96.2644,1391
96.5927,1448
96.9209,1520
97.2492,1444
97.5775,1462
97.9057,1442
98.234,1431
98.5622,1424
98.8905,1437
99.2187,1419
99.547,1377
99.8753,1404
99.9934,1403

File: XRD_SLS4_raw.csv
Angle,Intensity
5.00897,3058
5.33722,3293
5.66548,3373
5.99374,3662
6.32199,3993
6.65025,4047
6.97851,4257
7.30676,4407
7.63502,4659
7.96328,4642
8.29154,4933
8.61979,5023
8.94805,5265
9.27631,5266
9.60456,5483
9.93282,5642
10.2611,5595
10.5893,5819
10.9176,5900
11.2458,6001
11.5741,6121
11.9024,5963
12.2306,6158
12.5589,6132
12.8871,6304
13.2154,6366
13.5436,6246
13.8719,6234
14.2002,6260
14.5284,6389
14.8567,6380
15.1849,6580
15.5132,6615
15.8414,6496
16.1697,6507
16.498,6493
16.8262,6493
17.1545,6461
17.4827,6457
17.811,6347
18.1392,6172
18.4675,6150
18.7958,6168
19.124,6280
19.4523,6185
19.7805,6181
20.1088,6171
20.437,6132
20.7653,6238
21.0936,6155
21.4218,6213
21.7501,6081
22.0783,6198
22.4066,6356
22.7348,6224
23.0631,6235
23.3914,6402
23.7196,6407
24.0479,6224
24.3761,6410
24.7044,6313
25.0326,6284
25.3609,6338
25.6892,6293
26.0174,6223
26.3457,6221
26.6739,6270
27.0022,6315
27.3304,6239
27.6587,6227
27.987,6153
28.3152,6231
28.6435,6238
28.9717,6132
29.3,6228
29.6282,6037
29.9565,5942
30.2848,5748
30.613,5988
30.9413,6058
31.2695,5883
31.5978,5737
31.926,5630
32.2543,5818
32.5826,5652
32.9108,5501
33.2391,5488
33.5673,5402
33.8956,5395
34.2238,5382
34.5521,5284
34.8804,5283
35.2086,5154
35.5369,5215
35.8651,5113
36.1934,5034
36.5216,5041
36.8499,5098
37.1782,4967
37.5064,4895
37.8347,4736
38.1629,4749
38.4912,4698
38.8194,4624
39.1477,4697
39.476,4656
39.8042,4434
40.1325,4453
40.4607,4498
40.789,4474
41.1172,4324
41.4455,4287
41.7738,4311
42.102,4211
42.4303,4210
42.7585,4174
43.0868,3976
43.415,3850
43.7433,3993
44.0716,3886
44.3998,3804
44.7281,3881
45.0563,3817
45.3846,3730
45.7128,3835
46.0411,3620
46.3694,3780
46.6976,3807
47.0259,3779
47.3541,3656
47.6824,3717
48.0106,3703
48.3389,3688
48.6672,3599
48.9954,3635
49.3237,3683
49.6519,3574
49.9802,3583
50.3084,3660
50.6367,3561
50.965,3575
51.2932,3512
51.6215,3577
51.9497,3460
52.278,3453
52.6062,3484
52.9345,3444
53.2628,3395
53.591,3420
53.9193,3452
54.2475,3329
54.5758,3363
54.904,3377
55.2323,3324
55.5606,3352
55.8888,3293
56.2171,3371
56.5453,3470
56.8736,3416
57.2018,3277
57.5301,3346
57.8584,3251
58.1866,3201
58.5149,3289
58.8431,3360
59.1714,3217
59.4996,3240
59.8279,3140
60.1562,3136
60.4844,3120
60.8127,3249
61.1409,2995
61.4692,3046
61.7974,3006
62.1257,3154
62.454,3025
62.7822,3142
63.1105,3200
63.4387,3103
63.767,3152
64.0952,3088
64.4235,3133
64.7518,3014
65.08,3120
65.4083,3178
65.7365,3084
66.0648,3050
66.393,3068
66.7213,3130
67.0496,2988
67.3778,3110
67.7061,2938
68.0343,3072
68.3626,3039
68.6908,3015
69.0191,3096
69.3474,3001
69.6756,3028
70.0039,3039
70.3321,3045
70.6604,3138
70.9886,3063
71.3169,2982
71.6451,3001
71.9734,3089
72.3017,3024
72.6299,3053
72.9582,3135
73.2864,3121
73.6147,3033
73.9429,2954
74.2712,3004
74.5995,2964
74.9277,3166
75.256,2928
75.5842,3071
75.9125,3092
76.2407,3098
76.569,2896
76.8973,3030
77.2255,2990
77.5538,3006
77.882,3006
78.2103,2904
78.5385,2973
78.8668,2971
79.1951,2915
79.5233,2900
79.8516,3013
80.1798,3003
80.5081,2975
80.8363,2817
81.1646,2886
81.4929,3026
81.8211,2930
82.1494,2916
82.4776,2895
82.80589,2901
83.1341,2926
83.4624,2926
83.7907,3021
84.1189,2922
84.4472,2926
84.7754,2879
85.1037,2922
85.4319,2997
85.7602,2868
86.0885,2769
86.4167,2769
86.745,2861
87.0732,2936
87.4015,2794
87.7297,2910
88.058,2820
88.3863,2744
88.7145,2781
89.0428,2887
89.371,2869
89.6993,2776
90.0275,2806
90.3558,2803
90.6841,2832
91.0123,2815
91.3406,2821
91.6688,2741
91.9971,2909
92.3253,2809
92.6536,2740
92.9819,2882
93.3101,2850
93.6384,2785
93.9666,2896
94.2949,2738
94.6231,2789
94.9514,2649
95.2797,2698
95.6079,2730
95.9362,2692
96.2644,2724
96.5927,2710
96.9209,2740
97.2492,2667
97.5775,2663
97.9057,2688
98.234,2689
98.5622,2741
98.8905,2677
99.2187,2631
99.547,2611
99.8753,2613
99.9934,2613